time,seconds_elapsed,z,y,x
1717005648954292200,0.084292236328125,6.208064079284668,2.034472703933716,-2.8752381801605225
1717005648964302000,0.094302001953125,5.4624433517456055,0.8488454818725586,-1.8735582828521729
1717005648974311700,0.104311767578125,2.985875129699707,0.1957855224609375,-0.8149075508117676
1717005648984290800,0.114290771484375,-1.4540386199951172,-0.6233301162719727,0.8551075458526611
1717005648994300700,0.12430078125,-3.439629077911377,0.8922476768493652,-0.6280627250671387
1717005649004310500,0.134310546875,-7.539431571960449,6.921579360961914,-3.9202089309692383
1717005649014289700,0.14428955078125,-6.230397701263428,3.915210723876953,-1.1440937519073486
1717005649024299500,0.154299560546875,-7.913613319396973,3.7587783336639404,-1.5741827487945557
1717005649034309400,0.164309326171875,-6.7443695068359375,4.387300968170166,-2.0608246326446533
1717005649044288500,0.17428857421875,-5.540034294128418,4.7182936668396,-4.011322975158691
1717005649054298000,0.184298095703125,-2.931811809539795,4.1316375732421875,-4.398749351501465
1717005649064308000,0.194307861328125,-0.34759044647216797,3.610348701477051,-3.802725076675415
1717005649074287000,0.204287109375,2.7698421478271484,3.168184280395508,-2.598867416381836
1717005649084297000,0.214296875,4.701473236083984,2.3472251892089844,-1.1153676509857178
1717005649094306800,0.224306884765625,4.919870376586914,1.6824772357940674,0.30132436752319336
1717005649104286000,0.234285888671875,3.3523244857788086,0.9586977958679199,2.7955162525177
1717005649114295800,0.2442958984375,1.105978012084961,0.5017471313476562,4.733591079711914
1717005649124305700,0.2543056640625,-0.7769403457641602,0.13822054862976074,4.931605815887451
1717005649134284800,0.264284912109375,-2.257622241973877,0.04350638389587402,4.653664588928223
1717005649144294700,0.274294677734375,-2.9482827186584473,-0.12212204933166504,4.639515399932861
1717005649154304300,0.28430419921875,-2.778419017791748,-0.9362847805023193,4.7221808433532715
1717005649164283600,0.29428369140625,-2.304243564605713,-2.1167116165161133,4.143734931945801
1717005649174293200,0.304293212890625,-0.0066280364990234375,-2.47523832321167,3.4499526023864746
1717005649184303000,0.31430322265625,2.389035224914551,-1.99363112449646,3.6949169635772705
1717005649194282500,0.324282470703125,3.997073173522949,-1.763911247253418,4.48811149597168
1717005649204292000,0.3342919921875,5.300634384155273,-1.6460309028625488,5.2712836265563965
1717005649214302000,0.344302001953125,7.101649284362793,-1.5558748245239258,6.166467666625977
1717005649224311800,0.354311767578125,8.660833358764648,-1.3577611446380615,7.194308280944824
1717005649234291000,0.364291015625,9.745739936828613,-1.5787131786346436,8.599112510681152
1717005649244300800,0.37430078125,9.636728286743164,-2.2640421390533447,9.465119361877441
1717005649254310400,0.384310302734375,8.730415344238281,-2.7425503730773926,9.240022659301758
1717005649264289800,0.394289794921875,7.532683372497559,-2.6291489601135254,8.221824645996094
1717005649274299600,0.404299560546875,5.318709373474121,-2.022848606109619,7.2901997566223145
1717005649284309200,0.414309326171875,2.7346086502075195,-1.1155781745910645,6.584586143493652
1717005649294288400,0.424288330078125,0.9089670181274414,-0.11143970489501953,6.154697418212891
1717005649304298200,0.43429833984375,0.07905101776123047,0.5966296195983887,6.15617561340332
1717005649314308000,0.44430810546875,-0.31553173065185547,0.6642615795135498,6.932642936706543
1717005649324287200,0.454287353515625,0.3242340087890625,1.1153197288513184,6.672223091125488
1717005649334297000,0.464297119140625,1.7046937942504883,1.6027228832244873,5.810319900512695
1717005649344307000,0.474306884765625,3.6356449127197266,2.152696132659912,4.318118095397949
1717005649354286000,0.4842861328125,5.211637496948242,2.391813278198242,3.6696605682373047
1717005649364295700,0.494295654296875,6.3097734451293945,1.9817776679992676,3.8791348934173584
1717005649374305500,0.504305419921875,7.312294960021973,1.440600872039795,4.513795852661133
1717005649384284700,0.51428466796875,7.684877395629883,1.3690602779388428,5.1142659187316895
1717005649394294500,0.52429443359375,7.169018745422363,1.7815220355987549,4.8322978019714355
1717005649404304400,0.534304443359375,5.916667938232422,2.5178730487823486,3.624126434326172
1717005649414283500,0.544283447265625,5.004716873168945,3.4029746055603027,2.008431911468506
1717005649424293400,0.55429345703125,4.225908279418945,3.8925468921661377,0.7634057998657227
1717005649434303200,0.56430322265625,3.6871232986450195,3.701483726501465,0.2863529920578003
1717005649444282600,0.57428271484375,3.450106620788574,3.1062374114990234,0.6057868599891663
1717005649454292200,0.584292236328125,3.136050224304199,2.753425121307373,1.361074686050415
1717005649464302000,0.594302001953125,2.782989501953125,2.659580707550049,2.4597105979919434
1717005649474311700,0.604311767578125,2.512186050415039,2.6588985919952393,3.348670482635498
1717005649484290800,0.614290771484375,1.8264427185058594,2.551668405532837,3.7304940223693848
1717005649494300700,0.62430078125,1.7694902420043945,2.4544031620025635,3.851977825164795
1717005649504310500,0.634310546875,1.7225160598754883,2.2990825176239014,3.43107271194458
1717005649514289700,0.64428955078125,1.2262048721313477,2.2752654552459717,2.4487266540527344
1717005649524299500,0.654299560546875,0.7334985733032227,2.3273141384124756,1.5413763523101807
1717005649534309400,0.664309326171875,0.3287696838378906,2.3239338397979736,0.8320614099502563
1717005649544288500,0.67428857421875,0.08960628509521484,2.304788589477539,0.5832540988922119
1717005649554298000,0.684298095703125,0.35520458221435547,2.2286758422851562,0.5616395473480225
1717005649564308000,0.694307861328125,0.6950626373291016,2.119908332824707,0.5207334160804749
1717005649574287000,0.704287109375,1.071974754333496,2.057887554168701,0.7567458152770996
1717005649584297000,0.714296875,1.4345855712890625,2.0659799575805664,1.572464942932129
1717005649594306800,0.724306884765625,1.0111703872680664,2.1531503200531006,2.756945848464966
1717005649604286000,0.734285888671875,0.8587017059326172,2.074834108352661,4.31276798248291
1717005649614295800,0.7442958984375,0.4472322463989258,1.8835430145263672,5.27996301651001
1717005649624305700,0.7543056640625,-0.2864522933959961,1.6456730365753174,4.6561455726623535
1717005649634284800,0.764284912109375,-1.101675033569336,1.299612283706665,3.3850438594818115
1717005649644294700,0.774294677734375,-1.5890297889709473,0.9976935386657715,1.9201664924621582
1717005649654304300,0.78430419921875,-1.632838249206543,1.027005910873413,0.6951708793640137
1717005649664283600,0.79428369140625,-1.3754024505615234,1.1914162635803223,0.13372981548309326
1717005649674293200,0.804293212890625,-1.0270662307739258,1.2154126167297363,0.17942166328430176
1717005649684303000,0.81430322265625,-0.6331233978271484,1.2067410945892334,0.47898751497268677
1717005649694282500,0.824282470703125,-0.36644840240478516,1.21211576461792,0.9011849761009216
1717005649704292000,0.8342919921875,-0.06093597412109375,1.1980640888214111,1.5069297552108765
1717005649714302000,0.844302001953125,0.2005758285522461,1.2561755180358887,2.0345726013183594
1717005649724311800,0.854311767578125,0.6599369049072266,1.3210108280181885,2.8112382888793945
1717005649734291000,0.864291015625,0.49901676177978516,1.2830586433410645,3.2846171855926514
1717005649744300800,0.87430078125,-0.14525890350341797,1.0661303997039795,3.2975587844848633
1717005649754310400,0.884310302734375,-0.9697532653808594,0.7488894462585449,3.1129746437072754
1717005649764289800,0.894289794921875,-1.8777508735656738,0.5610330104827881,2.7460076808929443
1717005649774299600,0.904299560546875,-2.739131450653076,0.5450103282928467,2.6097590923309326
1717005649784309200,0.914309326171875,-3.3266782760620117,0.6105024814605713,2.484731674194336
1717005649794288400,0.924288330078125,-3.543759822845459,0.6325743198394775,2.1898317337036133
1717005649804298200,0.93429833984375,-3.6187949180603027,0.675853967666626,1.8970365524291992
1717005649814308000,0.94430810546875,-3.773355484008789,0.7666769027709961,1.743338942527771
1717005649824287200,0.954287353515625,-3.780734062194824,0.8080387115478516,1.627765417098999
1717005649834297000,0.964297119140625,-3.5793471336364746,0.8103528022766113,1.4000329971313477
1717005649844307000,0.974306884765625,-3.0630359649658203,0.865872859954834,1.2265206575393677
1717005649854286000,0.9842861328125,-2.151453971862793,0.8949873447418213,1.2603139877319336
1717005649864296000,0.9942958984375,-1.4175853729248047,0.9117271900177002,1.3927220106124878
1717005649874305500,1.004305419921875,-1.2449517250061035,0.9013781547546387,1.4736309051513672
1717005649884284700,1.01428466796875,-1.3325557708740234,0.909329891204834,1.4173333644866943
1717005649894294500,1.02429443359375,-1.448002815246582,0.9351062774658203,1.5181783437728882
1717005649904304400,1.034304443359375,-1.5625133514404297,0.9264655113220215,1.6022295951843262
1717005649914283500,1.044283447265625,-1.8969011306762695,0.7864537239074707,1.5555305480957031
1717005649924293400,1.05429345703125,-2.415404796600342,0.6669332981109619,1.4840192794799805
1717005649934303200,1.06430322265625,-3.087447166442871,0.6610367298126221,1.261425256729126
1717005649944282600,1.07428271484375,-3.5144777297973633,0.7228202819824219,0.8771020174026489
1717005649954292200,1.084292236328125,-3.67230224609375,0.7770726680755615,0.7247648239135742
1717005649964302000,1.094302001953125,-3.6694469451904297,0.7374560832977295,0.5707646012306213
1717005649974311700,1.104311767578125,-3.5129904747009277,0.614457368850708,0.3443727493286133
1717005649984290800,1.114290771484375,-3.2499160766601562,0.46187591552734375,0.3646247386932373
1717005649994300700,1.12430078125,-2.962839126586914,0.26573872566223145,0.4042264223098755
1717005650004310500,1.134310546875,-2.718204975128174,0.1812119483947754,0.5220143795013428
1717005650014289700,1.14428955078125,-2.566500663757324,0.12419748306274414,0.8635103702545166
1717005650024299500,1.154299560546875,-2.473076820373535,0.12683415412902832,1.3091074228286743
1717005650034309400,1.164309326171875,-2.5545339584350586,0.19525456428527832,1.6494967937469482
1717005650044288500,1.17428857421875,-2.6864004135131836,0.37328290939331055,1.866651177406311
1717005650054298000,1.184298095703125,-2.891510009765625,0.6248424053192139,1.852953553199768
1717005650064308000,1.194307861328125,-3.125319004058838,0.73099684715271,1.7762302160263062
1717005650074287000,1.204287109375,-3.2675962448120117,0.7049469947814941,1.567887306213379
1717005650084297000,1.214296875,-3.154198169708252,0.5706479549407959,1.3958549499511719
1717005650094306800,1.224306884765625,-2.9769492149353027,0.4494807720184326,1.4928141832351685
1717005650104286000,1.234285888671875,-2.820679187774658,0.3117387294769287,1.5264889001846313
1717005650114295800,1.2442958984375,-2.853508949279785,0.1986989974975586,1.4931411743164062
1717005650124305700,1.2543056640625,-3.0528273582458496,0.15437030792236328,1.6055926084518433
1717005650134284800,1.264284912109375,-3.231257915496826,0.2093205451965332,1.6262050867080688
1717005650144294700,1.274294677734375,-3.530454158782959,0.4501361846923828,1.6204888820648193
1717005650154304300,1.28430419921875,-3.593658447265625,1.0414443016052246,1.8582344055175781
1717005650164283600,1.29428369140625,-3.368514060974121,1.3792290687561035,1.9834132194519043
1717005650174293200,1.304293212890625,-3.2255520820617676,1.1499128341674805,1.8493720293045044
1717005650184303000,1.31430322265625,-3.126668930053711,0.8011093139648438,1.8762022256851196
1717005650194282500,1.324282470703125,-3.0223426818847656,0.5461502075195312,1.9326192140579224
1717005650204292000,1.3342919921875,-2.673189163208008,0.5586838722229004,1.6493955850601196
1717005650214302000,1.344302001953125,-2.4390206336975098,0.6225476264953613,1.347477912902832
1717005650224311800,1.354311767578125,-2.4336676597595215,0.5893659591674805,1.0701885223388672
1717005650234291000,1.364291015625,-2.6606998443603516,0.46599292755126953,1.0401355028152466
1717005650244300800,1.37430078125,-2.762941837310791,0.42818307876586914,1.0671405792236328
1717005650254310400,1.384310302734375,-2.8329930305480957,0.6296749114990234,1.1007754802703857
1717005650264289800,1.394289794921875,-3.0994906425476074,1.0176959037780762,1.4433337450027466
1717005650274299600,1.404299560546875,-3.4098901748657227,1.2422618865966797,1.74763822555542
1717005650284309200,1.414309326171875,-3.7775135040283203,1.1500859260559082,1.9327702522277832
1717005650294288400,1.424288330078125,-4.054103851318359,0.8756022453308105,2.241037368774414
1717005650304298200,1.43429833984375,-4.030909538269043,0.5429954528808594,2.4860010147094727
1717005650314308000,1.44430810546875,-4.018987655639648,0.19019222259521484,2.6285767555236816
1717005650324287200,1.454287353515625,-4.091564655303955,-0.25034499168395996,2.905857563018799
1717005650334297000,1.464297119140625,-4.403600215911865,-0.8895547389984131,3.0763514041900635
1717005650344307000,1.474306884765625,-4.338319778442383,-1.1831417083740234,2.229738712310791
1717005650354286000,1.4842861328125,-4.16000509262085,-0.9832279682159424,0.9819537401199341
1717005650364295700,1.494295654296875,-4.179305553436279,-0.9530773162841797,0.039287686347961426
1717005650374305500,1.504305419921875,-4.47265100479126,-1.1735622882843018,-0.33223235607147217
1717005650384284700,1.51428466796875,-4.787344455718994,-1.4579641819000244,-0.3712329864501953
1717005650394294500,1.52429443359375,-4.861764907836914,-1.7846155166625977,-0.43339526653289795
1717005650404304400,1.534304443359375,-4.870428085327148,-2.285583734512329,-0.4038172662258148
1717005650414283500,1.544283447265625,-5.129944801330566,-2.8634536266326904,-0.036504559218883514
1717005650424293400,1.55429345703125,-5.765924453735352,-3.395648717880249,0.3402522802352905
1717005650434303200,1.56430322265625,-6.698361396789551,-3.785856246948242,0.29418909549713135
1717005650444282600,1.57428271484375,-7.7959370613098145,-3.9808528423309326,-0.0883176326751709
1717005650454047700,1.5840478515625,-8.691214561462402,-4.0325026512146,-0.7296962141990662
1717005650464302000,1.594302001953125,-9.187088012695312,-4.162322521209717,-1.2894463539123535
1717005650474311700,1.604311767578125,-9.30959701538086,-4.233978271484375,-1.732046365737915
1717005650484535000,1.61453515625,-9.270758628845215,-4.253129959106445,-1.7709007263183594
1717005650494300700,1.62430078125,-9.025103569030762,-4.1654744148254395,-1.4684698581695557
1717005650504310500,1.634310546875,-8.6194429397583,-4.079451560974121,-0.6543049812316895
1717005650514289700,1.64428955078125,-8.066207885742188,-3.990161180496216,0.7712459564208984
1717005650524299500,1.654299560546875,-7.5455522537231445,-3.829941987991333,2.5044803619384766
1717005650534309400,1.664309326171875,-6.987879753112793,-3.752732276916504,4.066948890686035
1717005650544288500,1.67428857421875,-6.168486595153809,-3.5866317749023438,5.310572624206543
1717005650554298000,1.684298095703125,-5.015554428100586,-2.984243869781494,6.461002349853516
1717005650564308000,1.694307861328125,-3.752624273300171,-2.1521248817443848,7.690319538116455
1717005650574287000,1.704287109375,-2.6177148818969727,-1.4306892156600952,8.01400089263916
1717005650584297000,1.714296875,-1.4468450546264648,-1.023850679397583,7.575837135314941
1717005650594306800,1.724306884765625,-0.21497297286987305,-0.7586879730224609,7.044577598571777
1717005650604286000,1.734285888671875,0.948479175567627,-0.2504737377166748,6.954278469085693
1717005650614295800,1.7442958984375,1.5202293395996094,0.29275381565093994,6.7398810386657715
1717005650624305700,1.7543056640625,1.645921230316162,0.7076076865196228,6.948057651519775
1717005650634284800,1.764284912109375,1.522779941558838,0.8412113189697266,7.653097629547119
1717005650644294700,1.774294677734375,1.221545696258545,0.5623408555984497,8.594123840332031
1717005650654304300,1.78430419921875,1.1768531799316406,0.2109895944595337,9.19085693359375
1717005650664283600,1.79428369140625,1.083653450012207,0.014125227928161621,8.911980628967285
1717005650674293200,1.804293212890625,0.7650604248046875,0.06836193799972534,7.662773132324219
1717005650684303000,1.81430322265625,0.5291585922241211,0.39681971073150635,5.947088241577148
1717005650694282500,1.824282470703125,0.4722104072570801,0.7415828108787537,4.429309844970703
1717005650704292000,1.8342919921875,0.4354562759399414,0.8427078127861023,3.3909406661987305
1717005650714302000,1.844302001953125,0.2576451301574707,0.723595142364502,2.7113218307495117
1717005650724311800,1.854311767578125,-0.1727757453918457,0.5002379417419434,2.326171875
1717005650734291000,1.864291015625,-0.7765097618103027,0.3364635705947876,2.2011890411376953
1717005650744300800,1.87430078125,-1.2007577419281006,0.2605612277984619,2.1359310150146484
1717005650754310400,1.884310302734375,-1.4610190391540527,0.22034263610839844,2.5048341751098633
1717005650764289800,1.894289794921875,-1.5017063617706299,0.23790979385375977,3.1521997451782227
1717005650774299600,1.904299560546875,-1.3385698795318604,0.33400869369506836,3.507059097290039
1717005650784309200,1.914309326171875,-1.0587759017944336,0.4565589427947998,3.476642608642578
1717005650794288400,1.924288330078125,-0.8607382774353027,0.5694639682769775,3.3514785766601562
1717005650804298200,1.93429833984375,-0.6808545589447021,0.6832540035247803,3.421877861022949
1717005650814308000,1.94430810546875,-0.27582478523254395,0.6773271560668945,3.6726741790771484
1717005650824287200,1.954287353515625,0.42356395721435547,0.6330938339233398,4.055412292480469
1717005650834297000,1.964297119140625,1.2596886157989502,0.7557497024536133,4.067356586456299
1717005650844307000,1.974306884765625,2.2374796867370605,1.149524211883545,3.7388906478881836
1717005650854286000,1.9842861328125,3.270329475402832,1.744591236114502,3.6036577224731445
1717005650864295700,1.994295654296875,4.184810161590576,2.3100996017456055,3.6624412536621094
1717005650874305500,2.004305419921875,4.904801845550537,2.683589458465576,3.7319560050964355
1717005650884284700,2.01428466796875,5.200337886810303,2.869915008544922,4.052392959594727
1717005650894294500,2.02429443359375,5.137974262237549,2.5733790397644043,4.51254415512085
1717005650904304400,2.034304443359375,5.266919136047363,2.043274402618408,5.408205986022949
1717005650914283500,2.044283447265625,6.091085910797119,1.5468788146972656,6.628511905670166
1717005650924293400,2.05429345703125,6.343008041381836,1.31593656539917,7.820710182189941
1717005650934303200,2.06430322265625,6.404212474822998,1.4333257675170898,8.922164916992188
1717005650944282600,2.07428271484375,6.471100330352783,1.8936896324157715,9.827900886535645
1717005650954292200,2.084292236328125,5.9319047927856445,2.3598313331604004,10.656211853027344
1717005650964302000,2.094302001953125,5.11911678314209,2.768132209777832,11.452110290527344
1717005650974311700,2.104311767578125,4.385615825653076,3.163914203643799,11.852705001831055
1717005650984290800,2.114290771484375,3.6645185947418213,3.5542802810668945,11.43858528137207
1717005650994300700,2.12430078125,2.8942337036132812,3.9311161041259766,10.243404388427734
1717005651004310500,2.134310546875,2.0911457538604736,4.520719051361084,9.063512802124023
1717005651014289700,2.14428955078125,1.509698510169983,5.14940071105957,8.233160018920898
1717005651024299500,2.154299560546875,1.1088035106658936,5.659135341644287,7.619562149047852
1717005651034309400,2.164309326171875,0.833375096321106,5.91588020324707,7.261054039001465
1717005651044288500,2.17428857421875,0.44465869665145874,5.8615617752075195,7.171442031860352
1717005651054298000,2.184298095703125,0.22272562980651855,5.770268440246582,7.321462631225586
1717005651064308000,2.194307861328125,0.5486550331115723,5.5059051513671875,7.66854190826416
1717005651074287000,2.204287109375,0.9460965394973755,5.19674015045166,7.956737995147705
1717005651084297000,2.214296875,1.1976958513259888,5.161792755126953,7.808404922485352
1717005651094306800,2.224306884765625,0.6664187908172607,5.1408257484436035,7.423766613006592
1717005651104286000,2.234285888671875,-0.3225228190422058,4.868261814117432,7.154268741607666
1717005651114295800,2.2442958984375,-0.8565361499786377,4.2459397315979,7.102304458618164
1717005651124305700,2.2543056640625,-0.9207972884178162,3.4999547004699707,7.111331462860107
1717005651134284800,2.264284912109375,-0.17327213287353516,3.0293593406677246,6.553744316101074
1717005651144294700,2.274294677734375,1.1174416542053223,3.2448997497558594,5.61665153503418
1717005651154304300,2.28430419921875,1.9854559898376465,3.2246837615966797,5.258264541625977
1717005651164283600,2.29428369140625,2.37274169921875,2.861513137817383,5.449254989624023
1717005651174293200,2.304293212890625,2.1992669105529785,2.515629768371582,5.657558917999268
1717005651184303000,2.31430322265625,1.7975047826766968,2.0977749824523926,5.5933427810668945
1717005651194282500,2.324282470703125,1.545444369316101,1.8325872421264648,5.26105260848999
1717005651204292000,2.3342919921875,1.3201695680618286,1.7670650482177734,4.848884105682373
1717005651214302000,2.344302001953125,0.9617817401885986,1.6309919357299805,4.557436466217041
1717005651224311800,2.354311767578125,0.4487532377243042,1.3164691925048828,4.4524078369140625
1717005651234291000,2.364291015625,-0.13643383979797363,0.8962116241455078,4.157984733581543
1717005651244300800,2.37430078125,-0.5424754619598389,0.472811222076416,3.8965396881103516
1717005651254310400,2.384310302734375,-0.6450719833374023,0.04280853271484375,3.7007699012756348
1717005651264289800,2.394289794921875,-0.6464023590087891,-0.3477811813354492,3.480696678161621
1717005651274299600,2.404299560546875,-0.6322171688079834,-0.7713265419006348,3.2145824432373047
1717005651284309200,2.414309326171875,-0.6002683639526367,-1.1813616752624512,2.8240466117858887
1717005651294288400,2.424288330078125,-0.5701152086257935,-1.5486798286437988,2.4785985946655273
1717005651304298200,2.43429833984375,-0.4319862127304077,-1.9370532035827637,2.3684983253479004
1717005651314308000,2.44430810546875,-0.2863631248474121,-2.2606568336486816,2.373845100402832
1717005651324287200,2.454287353515625,-0.3906126022338867,-2.785493850708008,2.4535818099975586
1717005651334297000,2.464297119140625,-0.7865239381790161,-3.3878002166748047,2.638254165649414
1717005651344307000,2.474306884765625,-1.278633952140808,-3.9285759925842285,2.7663726806640625
1717005651354286000,2.4842861328125,-1.617304801940918,-4.1208014488220215,2.4359307289123535
1717005651364295700,2.494295654296875,-1.7252132892608643,-3.6387901306152344,1.4797115325927734
1717005651374305500,2.504305419921875,-1.5723726749420166,-2.760077476501465,0.3880620002746582
1717005651384284700,2.51428466796875,-1.3794517517089844,-1.9057927131652832,0.00196075439453125
1717005651394294500,2.52429443359375,-1.4744161367416382,-1.4634089469909668,0.21227502822875977
1717005651404304400,2.534304443359375,-1.7418642044067383,-1.0124831199645996,0.3369479179382324
1717005651414283500,2.544283447265625,-1.9068126678466797,-0.6197371482849121,0.11267995834350586
1717005651424293400,2.55429345703125,-1.8060944080352783,-0.3326396942138672,-0.6692142486572266
1717005651434303200,2.56430322265625,-1.325561761856079,-0.27753400802612305,-1.930999755859375
1717005651444282600,2.57428271484375,-0.6423439979553223,-0.9580187797546387,-3.9017395973205566
1717005651454292200,2.584292236328125,-0.49449610710144043,-2.190394401550293,-6.708272933959961
1717005651464302000,2.594302001953125,-1.802875280380249,-3.091639995574951,-9.589689254760742
1717005651474311700,2.604311767578125,-4.003018856048584,-3.618053913116455,-11.26577377319336
1717005651484290800,2.614290771484375,-6.349083423614502,-4.132281303405762,-11.030590057373047
1717005651494300700,2.62430078125,-8.304590225219727,-4.564658164978027,-9.678250312805176
1717005651504310500,2.634310546875,-9.564321517944336,-4.78990364074707,-7.655777931213379
1717005651514289700,2.64428955078125,-9.794817924499512,-4.8511152267456055,-5.412099361419678
1717005651524299500,2.654299560546875,-8.751883506774902,-4.629606246948242,-3.835709571838379
1717005651534309400,2.664309326171875,-6.487978458404541,-4.36779260635376,-3.5465426445007324
1717005651544288500,2.67428857421875,-3.806081771850586,-4.140174865722656,-3.6644625663757324
1717005651554298000,2.684298095703125,-1.8603848218917847,-3.6670780181884766,-4.214004993438721
1717005651564308000,2.694307861328125,-0.9514163732528687,-2.929253101348877,-4.946056365966797
1717005651574287000,2.704287109375,-0.7589391469955444,-2.1188158988952637,-5.344112873077393
1717005651584297000,2.714296875,-0.7851333022117615,-1.488546371459961,-5.278570175170898
1717005651594306800,2.724306884765625,-0.7397510409355164,-1.0125155448913574,-5.064931869506836
1717005651604286000,2.734285888671875,-0.5843079686164856,-0.7020258903503418,-4.639987945556641
1717005651614295800,2.7442958984375,-0.3070276975631714,-0.5970335006713867,-4.084727764129639
1717005651624305700,2.7543056640625,0.21866261959075928,-0.5633368492126465,-3.3338088989257812
1717005651634284800,2.764284912109375,0.8450186252593994,-0.5757675170898438,-2.6038827896118164
1717005651644294700,2.774294677734375,1.4031168222427368,-0.5520901679992676,-1.9184813499450684
1717005651654304300,2.78430419921875,1.7795757055282593,-0.34708595275878906,-1.3501157760620117
1717005651664283600,2.79428369140625,1.8090304136276245,-0.1947793960571289,-0.7483386993408203
1717005651674293200,2.804293212890625,1.2896604537963867,-0.1235499382019043,0.08420991897583008
1717005651684303000,2.81430322265625,0.7901332378387451,-0.022841930389404297,0.6272382736206055
1717005651694282500,2.824282470703125,0.030787348747253418,0.11952447891235352,1.337233066558838
1717005651704292000,2.8342919921875,-0.8605804443359375,0.33069658279418945,2.1944751739501953
1717005651714302000,2.844302001953125,-1.4371570348739624,0.5882821083068848,2.777534008026123
1717005651724311800,2.854311767578125,-1.6703332662582397,0.7410159111022949,3.1372146606445312
1717005651734291000,2.864291015625,-1.6807985305786133,0.8563766479492188,3.30204439163208
1717005651744300800,2.87430078125,-1.7741817235946655,0.9886984825134277,3.488936424255371
1717005651754310700,2.884310546875,-1.923694372177124,1.0398712158203125,3.5774264335632324
1717005651764289800,2.894289794921875,-2.1029484272003174,1.2351298332214355,3.5381717681884766
1717005651774299600,2.904299560546875,-2.2360920906066895,1.4883193969726562,3.6444320678710938
1717005651784309200,2.914309326171875,-2.1836557388305664,1.729933261871338,3.968381404876709
1717005651794288400,2.924288330078125,-2.2412819862365723,1.9732179641723633,4.676220417022705
1717005651804298200,2.93429833984375,-2.290782928466797,2.2170982360839844,5.495957851409912
1717005651814308000,2.94430810546875,-2.0454630851745605,2.266226291656494,6.107614994049072
1717005651824287200,2.954287353515625,-1.7182027101516724,2.1469030380249023,6.54243803024292
1717005651834297000,2.964297119140625,-1.5599019527435303,2.026987075805664,6.729084491729736
1717005651844307000,2.974306884765625,-1.4124585390090942,1.8523797988891602,6.67256498336792
1717005651854286000,2.9842861328125,-1.2862976789474487,1.4818215370178223,6.754199504852295
1717005651864295700,2.994295654296875,-1.1566413640975952,1.0848240852355957,6.956949234008789
1717005651874305500,3.004305419921875,-1.111952304840088,0.791898250579834,7.227121353149414
1717005651884284700,3.01428466796875,-1.130813717842102,0.31009960174560547,7.847186088562012
1717005651894294500,3.02429443359375,-1.2600164413452148,-0.2339620590209961,8.451791763305664
1717005651904304400,3.034304443359375,-1.2264175415039062,-0.3950214385986328,8.678647994995117
1717005651914283500,3.044283447265625,-1.0608335733413696,-0.09010505676269531,8.436773300170898
1717005651924293400,3.05429345703125,-0.9005582332611084,0.6482210159301758,7.852400779724121
1717005651934303200,3.06430322265625,-0.9096633791923523,1.3761587142944336,7.518465518951416
1717005651944282600,3.07428271484375,-1.2691221237182617,1.9465317726135254,7.347585678100586
1717005651954292200,3.084292236328125,-1.8114070892333984,2.5843615531921387,7.019405364990234
1717005651964302000,3.094302001953125,-2.1963322162628174,3.3091139793395996,6.773195266723633
1717005651974311700,3.104311767578125,-2.0461435317993164,4.07764196395874,6.607577323913574
1717005651984290800,3.114290771484375,-1.5318424701690674,4.728853702545166,6.227694511413574
1717005651994300700,3.12430078125,-1.0961451530456543,5.306307792663574,5.762904167175293
1717005652004310500,3.134310546875,-0.7137994766235352,5.6745195388793945,5.344816207885742
1717005652014289700,3.14428955078125,-0.4794914722442627,5.763339042663574,5.111612796783447
1717005652024299500,3.154299560546875,-0.25579607486724854,5.459468364715576,4.985442161560059
1717005652034309400,3.164309326171875,0.02700018882751465,5.020285129547119,4.829807281494141
1717005652044288500,3.17428857421875,0.189264178276062,4.460916042327881,4.450284004211426
1717005652054298400,3.18429833984375,0.06066107749938965,3.7769107818603516,3.726426601409912
1717005652064308000,3.194307861328125,-0.08804011344909668,2.9925389289855957,2.9804415702819824
1717005652074287000,3.204287109375,-0.3107143044471741,2.2301602363586426,2.3206872940063477
1717005652084297000,3.214296875,-0.5154033899307251,1.7133660316467285,1.8352789878845215
1717005652094306800,3.224306884765625,-0.7082412838935852,1.5231847763061523,1.7882695198059082
1717005652104286000,3.234285888671875,-0.8741291165351868,1.4858832359313965,2.234926700592041
1717005652114295800,3.2442958984375,-1.0797024965286255,1.4212450981140137,3.1503705978393555
1717005652124305700,3.2543056640625,-1.2776018381118774,1.3751020431518555,4.237489700317383
1717005652134284800,3.264284912109375,-1.3834785223007202,1.3654413223266602,5.220879554748535
1717005652144294700,3.274294677734375,-1.3481804132461548,1.4854521751403809,6.028948783874512
1717005652154304300,3.28430419921875,-1.217269778251648,1.6655583381652832,6.782350063323975
1717005652164283600,3.29428369140625,-0.9605237245559692,1.996124267578125,7.4313578605651855
1717005652174293500,3.30429345703125,-0.5982674360275269,2.255711555480957,7.781357765197754
1717005652184303000,3.31430322265625,-0.30110132694244385,2.355309009552002,7.817267417907715
1717005652194282500,3.324282470703125,-0.18268704414367676,2.2218546867370605,7.55382776260376
1717005652204292000,3.3342919921875,-0.2317652702331543,1.854578971862793,6.9641523361206055
1717005652214302000,3.344302001953125,-0.404893696308136,1.3867392539978027,6.104509353637695
1717005652224311800,3.354311767578125,-0.5073643922805786,0.9359393119812012,5.104879379272461
1717005652234291000,3.364291015625,-0.5217658281326294,0.4905366897583008,4.220691680908203
1717005652244300800,3.37430078125,-0.44809335470199585,0.08090877532958984,3.3750085830688477
1717005652254310700,3.384310546875,-0.3813204765319824,-0.30222368240356445,2.608767509460449
1717005652264289800,3.394289794921875,-0.25090301036834717,-0.6558122634887695,1.895040512084961
1717005652274299600,3.404299560546875,-0.16903436183929443,-0.9783778190612793,1.284571647644043
1717005652284309200,3.414309326171875,-0.12101364135742188,-1.2567925453186035,0.735661506652832
1717005652294288400,3.424288330078125,-0.17261111736297607,-1.64286470413208,0.22835588455200195
1717005652304298200,3.43429833984375,-0.2159557342529297,-1.9325518608093262,-0.39737558364868164
1717005652314308000,3.44430810546875,-0.2969769239425659,-2.1563539505004883,-0.9282407760620117
1717005652324287200,3.454287353515625,-0.3769657611846924,-2.3246541023254395,-1.4209909439086914
1717005652334297000,3.464297119140625,-0.3811509609222412,-2.439168930053711,-1.8744893074035645
1717005652344307000,3.474306884765625,-0.3721703290939331,-2.459449291229248,-2.2349767684936523
1717005652354286000,3.4842861328125,-0.4338696002960205,-2.5232667922973633,-2.4058947563171387
1717005652364295700,3.494295654296875,-0.4780552387237549,-2.5757856369018555,-2.480506420135498
1717005652374305500,3.504305419921875,-0.5230220556259155,-2.7321648597717285,-2.4892969131469727
1717005652384284700,3.51428466796875,-0.5765817165374756,-2.9853920936584473,-2.497697353363037
1717005652394294500,3.52429443359375,-0.592676043510437,-3.3069639205932617,-2.4158520698547363
1717005652404304400,3.534304443359375,-0.5763760805130005,-3.6142683029174805,-2.433314800262451
1717005652414283500,3.544283447265625,-0.5507798194885254,-3.678832530975342,-2.590823173522949
1717005652424293400,3.55429345703125,-0.5273450613021851,-3.67549467086792,-2.761600971221924
1717005652434303200,3.56430322265625,-0.5703974962234497,-3.557680130004883,-2.9809579849243164
1717005652444282600,3.57428271484375,-0.706301212310791,-3.4268226623535156,-3.244506359100342
1717005652454292200,3.584292236328125,-0.839895486831665,-3.2380642890930176,-3.5606536865234375
1717005652464302000,3.594302001953125,-1.0011550188064575,-3.2040982246398926,-3.695413112640381
1717005652474311700,3.604311767578125,-1.3560774326324463,-3.7937374114990234,-3.4554076194763184
1717005652484290800,3.614290771484375,-1.6388895511627197,-4.667069911956787,-3.4220285415649414
1717005652494300700,3.62430078125,-1.76710844039917,-5.436241626739502,-3.6341328620910645
1717005652504310500,3.634310546875,-1.8390882015228271,-5.823703765869141,-4.054927825927734
1717005652514289700,3.64428955078125,-1.9301369190216064,-5.823555946350098,-4.429714679718018
1717005652524299500,3.654299560546875,-2.019192934036255,-5.439540863037109,-4.744287014007568
1717005652534309400,3.664309326171875,-2.003772020339966,-4.574659824371338,-5.0490264892578125
1717005652544288500,3.67428857421875,-1.5580875873565674,-3.5210795402526855,-5.253690242767334
1717005652554298400,3.68429833984375,-0.7053859233856201,-2.4298453330993652,-5.367523193359375
1717005652564308000,3.694307861328125,0.3346292972564697,-1.373302936553955,-5.271105766296387
1717005652574287000,3.704287109375,0.9638245105743408,-0.784034252166748,-4.9758992195129395
1717005652584297000,3.714296875,0.9928176403045654,-0.6125349998474121,-4.670085906982422
1717005652594306800,3.724306884765625,0.5109400749206543,-0.9418778419494629,-4.354348182678223
1717005652604286000,3.734285888671875,-0.12169384956359863,-1.6101059913635254,-4.179564476013184
1717005652614295800,3.7442958984375,-0.8997323513031006,-2.3134512901306152,-3.761007785797119
1717005652624305700,3.7543056640625,-1.6086721420288086,-2.9242753982543945,-3.028115749359131
1717005652634284800,3.764284912109375,-2.1068243980407715,-3.2916955947875977,-2.2167134284973145
1717005652644294700,3.774294677734375,-2.4702322483062744,-3.5050907135009766,-1.489151954650879
1717005652654304300,3.78430419921875,-2.62508487701416,-3.577523708343506,-0.8958873748779297
1717005652664283600,3.79428369140625,-2.624246597290039,-3.5649752616882324,-0.48478031158447266
1717005652674217700,3.8042177734375,-2.545485258102417,-3.413841724395752,-0.39109134674072266
1717005652684227300,3.814227294921875,-2.5272481441497803,-3.1119604110717773,-0.7086181640625
1717005652694206700,3.824206787109375,-2.5235276222229004,-2.7977042198181152,-1.1688809394836426
1717005652704216300,3.83421630859375,-2.4010441303253174,-2.4736900329589844,-1.6755342483520508
1717005652714226200,3.84422607421875,-2.317323684692383,-2.0341620445251465,-1.9595775604248047
1717005652724236000,3.854236083984375,-2.329744815826416,-1.6992297172546387,-1.858659267425537
1717005652734215200,3.864215087890625,-2.309144973754883,-1.3304705619812012,-1.3989109992980957
1717005652744225000,3.87422509765625,-2.175065040588379,-0.9102373123168945,-0.7418856620788574
1717005652754235000,3.88423486328125,-1.934891939163208,-0.534416675567627,0.03445005416870117
1717005652764214000,3.894214111328125,-1.7638286352157593,-0.18503856658935547,0.885378360748291
1717005652774224000,3.904223876953125,-1.651824951171875,0.17089271545410156,1.6492161750793457
1717005652784233500,3.9142333984375,-1.5660878419876099,0.39006853103637695,2.3744068145751953
1717005652794212900,3.924212890625,-1.4730939865112305,0.5393514633178711,3.039452075958252
1717005652804222700,3.93422265625,-1.2768845558166504,0.769709587097168,3.432760715484619
1717005652814232300,3.944232421875,-1.0774282217025757,1.0543451309204102,3.4965710639953613
1717005652824211500,3.95421142578125,-1.1923550367355347,1.2931485176086426,3.3975300788879395
1717005652834221300,3.96422119140625,-1.7523167133331299,1.3923277854919434,3.4447741508483887
1717005652844231200,3.974231201171875,-2.46691632270813,1.4968738555908203,3.7184195518493652
1717005652854210300,3.984210205078125,-3.0423927307128906,1.6245722770690918,3.853179931640625
1717005652864220200,3.99422021484375,-3.2742578983306885,1.7874927520751953,3.8715763092041016
1717005652874230000,4.00422998046875,-3.30605411529541,1.9754681587219238,3.9992923736572266
1717005652884209200,4.014209228515625,-3.278581142425537,2.0463571548461914,4.223425388336182
1717005652894219000,4.024218994140625,-3.213447093963623,2.014162063598633,4.416175365447998
1717005652904228600,4.034228515625,-3.086327075958252,1.9702863693237305,4.483209609985352
1717005652914207700,4.044207763671875,-2.9205141067504883,2.0192246437072754,4.471795082092285
1717005652924217600,4.054217529296875,-2.794574499130249,2.0037059783935547,4.565990924835205
1717005652934227500,4.0642275390625,-2.892247200012207,2.046224594116211,4.537520885467529
1717005652944206800,4.074206787109375,-3.182241916656494,2.08469820022583,4.407155990600586
1717005652954216400,4.084216552734375,-3.395052194595337,2.0688905715942383,4.387203216552734
1717005652964226300,4.094226318359375,-3.4138476848602295,2.005861282348633,4.524420261383057
1717005652974236200,4.104236083984375,-3.2276597023010254,1.896228313446045,4.740902900695801
1717005652984215300,4.11421533203125,-2.84450101852417,1.706817626953125,5.074596881866455
1717005652994225000,4.124224853515625,-2.3985323905944824,1.522496223449707,5.4775776863098145
1717005653004234800,4.13423486328125,-1.993947982788086,1.309018611907959,5.8031511306762695
1717005653014214000,4.1442138671875,-1.6542694568634033,1.2292461395263672,5.846713542938232
1717005653024223700,4.1542236328125,-1.417398452758789,1.3182992935180664,5.770449161529541
1717005653034233600,4.164233642578125,-1.2855724096298218,1.2188801765441895,5.952640056610107
1717005653044212700,4.174212646484375,-1.3826544284820557,0.5559506416320801,6.604240417480469
1717005653054222600,4.18422265625,-1.5552468299865723,-0.1945037841796875,7.077378749847412
1717005653064232400,4.194232421875,-1.5241222381591797,-0.7786493301391602,7.2229905128479
1717005653074211600,4.204211669921875,-1.2297909259796143,-1.0092964172363281,7.042725563049316
1717005653084221400,4.214221435546875,-0.7828085422515869,-0.7004938125610352,6.648100852966309
1717005653094231000,4.22423095703125,-0.5047836303710938,-0.06379508972167969,6.490148544311523
1717005653104210200,4.234210205078125,-0.42394018173217773,0.8394379615783691,6.595473289489746
1717005653114220000,4.244219970703125,-0.5515005588531494,1.8691997528076172,6.6721343994140625
1717005653124230000,4.25422998046875,-0.8296277523040771,2.8683505058288574,6.6731367111206055
1717005653134209000,4.264208984375,-1.0951783657073975,3.7440385818481445,6.727734565734863
1717005653144219000,4.274218994140625,-1.5436341762542725,4.425866603851318,6.8088483810424805
1717005653154228700,4.284228759765625,-1.908216118812561,4.926177501678467,6.640132904052734
1717005653164207900,4.294207763671875,-2.031130075454712,4.943243980407715,6.135045051574707
1717005653174217700,4.3042177734375,-2.0054659843444824,4.638403415679932,5.498424053192139
1717005653184227300,4.314227294921875,-1.9214924573898315,4.184143543243408,4.7116923332214355
1717005653194206700,4.324206787109375,-1.823493242263794,3.617825508117676,3.982126235961914
1717005653204216300,4.33421630859375,-1.7183594703674316,2.9073195457458496,3.270925760269165
1717005653214226200,4.34422607421875,-1.891782283782959,2.1388487815856934,2.7607202529907227
1717005653224236000,4.354236083984375,-1.962928056716919,1.5666427612304688,2.6937503814697266
1717005653234215200,4.364215087890625,-1.7206695079803467,1.4056105613708496,3.0039539337158203
1717005653244225000,4.37422509765625,-1.4439736604690552,1.4288945198059082,3.654222011566162
1717005653254235000,4.38423486328125,-1.2797551155090332,1.4967622756958008,4.321535587310791
1717005653264214000,4.394214111328125,-1.0381320714950562,1.6217374801635742,4.778130531311035
1717005653274223900,4.404223876953125,-0.7593055963516235,1.7795405387878418,4.841772079467773
1717005653284233500,4.4142333984375,-0.4800320863723755,1.7631158828735352,4.837214946746826
1717005653294212900,4.424212890625,-0.16755437850952148,1.5423798561096191,4.637321949005127
1717005653304222700,4.43422265625,0.4008359909057617,1.2604684829711914,4.332852363586426
1717005653314232300,4.444232421875,0.9153993129730225,1.137549877166748,3.9158124923706055
1717005653324211500,4.45421142578125,1.2018272876739502,0.8993191719055176,3.568997383117676
1717005653334221300,4.46422119140625,1.317363977432251,0.5028600692749023,3.1103296279907227
1717005653344231200,4.474231201171875,1.4452438354492188,0.29239654541015625,2.445943832397461
1717005653354210300,4.484210205078125,1.5613410472869873,-0.030355453491210938,1.7581591606140137
1717005653364220200,4.49422021484375,1.7204256057739258,-0.3603792190551758,0.6815128326416016
1717005653374230000,4.50422998046875,1.757680892944336,-0.5631275177001953,-0.5683951377868652
1717005653384209200,4.514209228515625,1.7489590644836426,-0.8256945610046387,-1.7898821830749512
1717005653394219000,4.524218994140625,1.7626228332519531,-1.1249628067016602,-2.809446334838867
1717005653404228600,4.534228515625,1.5636041164398193,-1.362612247467041,-3.4048759937286377
1717005653414207700,4.544207763671875,1.1330583095550537,-1.675797939300537,-3.523728609085083
1717005653424217600,4.554217529296875,0.44275426864624023,-1.8362507820129395,-3.596768617630005
1717005653434227500,4.5642275390625,-0.38412022590637207,-1.750551700592041,-3.569896936416626
1717005653444206800,4.574206787109375,-1.2789585590362549,-1.5628843307495117,-3.2909414768218994
1717005653454216400,4.584216552734375,-2.0165672302246094,-1.5039100646972656,-2.829713821411133
1717005653464226300,4.594226318359375,-2.634202241897583,-1.5069174766540527,-2.6535730361938477
1717005653474236200,4.604236083984375,-3.141094923019409,-1.4867124557495117,-2.5861449241638184
1717005653484215300,4.61421533203125,-3.1383914947509766,-1.6895122528076172,-2.777651786804199
1717005653494225000,4.624224853515625,-2.8439877033233643,-1.752382755279541,-3.259185314178467
1717005653504234800,4.63423486328125,-2.738002300262451,-1.6601247787475586,-3.493772029876709
1717005653514214000,4.6442138671875,-2.625626802444458,-1.6691546440124512,-3.4353628158569336
1717005653524223700,4.6542236328125,-2.534815549850464,-1.7744765281677246,-3.1903228759765625
1717005653534233600,4.664233642578125,-2.3050310611724854,-1.7816100120544434,-2.8711280822753906
1717005653544212700,4.674212646484375,-1.962908148765564,-1.717620849609375,-2.3754725456237793
1717005653554222600,4.68422265625,-1.4672441482543945,-1.827908992767334,-1.8576765060424805
1717005653564232400,4.694232421875,-0.8208482265472412,-2.0220446586608887,-1.5168380737304688
1717005653574211600,4.704211669921875,-0.1808323860168457,-2.2949886322021484,-1.2423677444458008
1717005653584221400,4.714221435546875,0.43149542808532715,-2.632211685180664,-0.9418134689331055
1717005653594231000,4.72423095703125,1.011650800704956,-3.0300216674804688,-0.7727227210998535
1717005653604210200,4.734210205078125,1.209721326828003,-3.1854796409606934,-0.9356579780578613
1717005653614220000,4.744219970703125,1.1192553043365479,-3.192976951599121,-1.4290990829467773
1717005653624230000,4.75422998046875,0.8814163208007812,-3.0699071884155273,-2.119790554046631
1717005653634209000,4.764208984375,0.7040209770202637,-2.7943801879882812,-2.8543100357055664
1717005653644219000,4.774218994140625,0.5721516609191895,-2.539605140686035,-3.3702802658081055
1717005653654228700,4.784228759765625,0.4122130870819092,-2.3358893394470215,-3.453190326690674
1717005653664208000,4.794207763671875,0.2528717517852783,-2.3440375328063965,-3.009768486022949
1717005653674217700,4.8042177734375,-0.18521857261657715,-2.8276925086975098,-1.9956388473510742
1717005653684227300,4.814227294921875,-0.8326964378356934,-3.3899827003479004,-0.8146247863769531
1717005653694206700,4.824206787109375,-1.556609869003296,-3.877674102783203,0.3786153793334961
1717005653704216300,4.83421630859375,-2.0112178325653076,-3.9854302406311035,1.197113037109375
1717005653714226200,4.84422607421875,-1.958593726158142,-3.693856716156006,1.5553059577941895
1717005653724236000,4.854236083984375,-1.7510067224502563,-3.195127487182617,1.5226855278015137
1717005653734215200,4.864215087890625,-1.558415412902832,-2.4465785026550293,1.1336545944213867
1717005653744225000,4.87422509765625,-0.9983299970626831,-1.3774561882019043,0.5002508163452148
1717005653754235000,4.88423486328125,-0.12818503379821777,-0.460665225982666,0.04282999038696289
1717005653764214000,4.894214111328125,0.8240151405334473,0.4623847007751465,-0.31786394119262695
1717005653774224000,4.904223876953125,1.5545635223388672,1.3528251647949219,-0.5033879280090332
1717005653784233500,4.9142333984375,1.9019379615783691,2.037703514099121,-0.3419218063354492
1717005653794212900,4.924212890625,2.0151381492614746,2.5032896995544434,0.012148380279541016
1717005653804222700,4.93422265625,1.8491089344024658,2.63847017288208,0.5893988609313965
1717005653814232300,4.944232421875,1.3357892036437988,2.5934090614318848,1.3324875831604004
1717005653824211500,4.95421142578125,0.47019004821777344,2.3934803009033203,1.9823417663574219
1717005653834221300,4.96422119140625,-0.48601198196411133,1.828237533569336,2.5187220573425293
1717005653844231200,4.974231201171875,-1.2461382150650024,1.1232223510742188,2.9679274559020996
1717005653854210300,4.984210205078125,-1.8284820318222046,0.4905281066894531,3.2620134353637695
1717005653864220200,4.99422021484375,-2.239955186843872,0.01987457275390625,3.4298949241638184
1717005653874230000,5.00422998046875,-2.5691356658935547,-0.3086872100830078,3.538753032684326
1717005653884209200,5.014209228515625,-2.908428907394409,-0.44640541076660156,3.9611406326293945
1717005653894219000,5.024218994140625,-3.389178991317749,-0.2942514419555664,4.2720208168029785
1717005653904228600,5.034228515625,-3.68074369430542,0.2106175422668457,4.421262264251709
1717005653914207700,5.044207763671875,-3.974738597869873,0.8408980369567871,4.582984447479248
1717005653924217600,5.054217529296875,-4.042677879333496,1.51513671875,4.62153434753418
1717005653934227500,5.0642275390625,-4.0115275382995605,2.0548086166381836,4.350221633911133
1717005653944206800,5.074206787109375,-3.5338330268859863,2.4179553985595703,3.784862518310547
1717005653954216400,5.084216552734375,-2.774858236312866,2.6865296363830566,3.1653800010681152
1717005653964226300,5.094226318359375,-2.0732197761535645,2.8262124061584473,2.7188267707824707
1717005653973857800,5.10385791015625,-1.5422067642211914,2.8049163818359375,2.3425097465515137
1717005653984215300,5.11421533203125,-1.3038842678070068,2.8084754943847656,2.258057117462158
1717005653994225000,5.124224853515625,-1.1783775091171265,2.900167942047119,2.563070774078369
1717005654004234800,5.13423486328125,-1.242139458656311,3.020534038543701,2.9508771896362305
1717005654014214000,5.1442138671875,-1.6578302383422852,3.173039436340332,3.323784351348877
1717005654024223700,5.1542236328125,-2.440415143966675,3.2938852310180664,3.706075668334961
1717005654034233600,5.164233642578125,-3.4475340843200684,3.286954402923584,4.12485408782959
1717005654044212700,5.174212646484375,-4.154096603393555,3.2901687622070312,4.250247001647949
1717005654054222600,5.18422265625,-4.42404842376709,3.209611415863037,4.375234127044678
1717005654064232400,5.194232421875,-4.191709995269775,3.0454821586608887,4.453695297241211
1717005654074211600,5.204211669921875,-3.631587266921997,2.915769100189209,4.3876543045043945
1717005654084221400,5.214221435546875,-3.1547892093658447,2.817772388458252,4.414399147033691
1717005654094231000,5.22423095703125,-2.78314208984375,2.7748703956604004,4.560035705566406
1717005654104210200,5.234210205078125,-2.587078094482422,2.7988390922546387,4.754209995269775
1717005654114220000,5.244219970703125,-2.654688596725464,2.881204128265381,4.868603706359863
1717005654124230000,5.25422998046875,-2.9278457164764404,2.864826202392578,4.862871170043945
1717005654134209000,5.264208984375,-3.0517923831939697,2.791567802429199,4.552199840545654
1717005654144219000,5.274218994140625,-3.0254993438720703,2.6323704719543457,4.07260799407959
1717005654154228700,5.284228759765625,-2.9146788120269775,2.449850082397461,3.5248184204101562
1717005654164207900,5.294207763671875,-2.715654134750366,2.2543697357177734,3.0072274208068848
1717005654174217700,5.3042177734375,-2.548341751098633,2.090754985809326,2.7007832527160645
1717005654184227300,5.314227294921875,-2.4234113693237305,2.018364906311035,2.7879981994628906
1717005654194206700,5.324206787109375,-2.317399024963379,1.9885234832763672,3.1534266471862793
1717005654204216300,5.33421630859375,-2.1929168701171875,1.9082069396972656,3.617213726043701
1717005654214226200,5.34422607421875,-2.1051907539367676,1.841381549835205,4.082398414611816
1717005654224236000,5.354236083984375,-2.087557315826416,1.722574234008789,4.559357166290283
1717005654234215200,5.364215087890625,-2.026120662689209,1.585294246673584,4.97532320022583
1717005654244225000,5.37422509765625,-1.901827335357666,1.4069695472717285,5.090963840484619
1717005654254235000,5.38423486328125,-1.7871557474136353,1.3466734886169434,5.092166900634766
1717005654264214000,5.394214111328125,-1.5618202686309814,1.2242431640625,5.001873970031738
1717005654274223900,5.404223876953125,-1.2826952934265137,0.9352335929870605,5.093426704406738
1717005654284233500,5.4142333984375,-0.9202214479446411,0.4250364303588867,5.476282596588135
1717005654294212900,5.424212890625,-0.5171476602554321,-0.21728038787841797,5.869725227355957
1717005654304222700,5.43422265625,-0.10853409767150879,-0.7509918212890625,6.058506488800049
1717005654314232300,5.444232421875,0.3289940357208252,-0.9997930526733398,6.130155086517334
1717005654324211500,5.45421142578125,0.8010643720626831,-1.153111457824707,6.166347503662109
1717005654334221300,5.46422119140625,1.2224469184875488,-0.7865438461303711,5.7633957862854
1717005654344231200,5.474231201171875,1.687010407447815,0.13823556900024414,5.22666597366333
1717005654354210300,5.484210205078125,2.019045114517212,1.2098002433776855,4.581489562988281
1717005654364220200,5.49422021484375,2.104569911956787,2.1894021034240723,4.031394004821777
1717005654374230000,5.50422998046875,1.8966273069381714,2.7320871353149414,3.7478575706481934
1717005654384209200,5.514209228515625,1.4967607259750366,2.7705626487731934,3.6480627059936523
1717005654394219000,5.524218994140625,1.1541584730148315,2.3770198822021484,3.493518829345703
1717005654404228600,5.534228515625,0.9699702262878418,1.7035093307495117,3.1348538398742676
1717005654414207700,5.544207763671875,0.8728444576263428,1.0561323165893555,2.688514232635498
1717005654424217600,5.554217529296875,0.7676503658294678,0.35134029388427734,2.3660173416137695
1717005654434227500,5.5642275390625,0.5856225490570068,-0.3056173324584961,2.046232223510742
1717005654444206800,5.574206787109375,0.3309030532836914,-0.8082351684570312,1.5612726211547852
1717005654454216400,5.584216552734375,0.003130674362182617,-1.143019199371338,1.0980095863342285
1717005654464226300,5.594226318359375,-0.3087707757949829,-1.4061923027038574,0.8593740463256836
1717005654474236200,5.604236083984375,-0.6929810047149658,-1.6442198753356934,0.8177676200866699
1717005654484215300,5.61421533203125,-0.9484195709228516,-1.8463315963745117,0.8312687873840332
1717005654494225000,5.624224853515625,-1.1502585411071777,-1.968294620513916,0.9570789337158203
1717005654504234800,5.63423486328125,-1.202248215675354,-2.0799331665039062,1.3016414642333984
1717005654514214000,5.6442138671875,-1.1262497901916504,-2.0503716468811035,1.6558938026428223
1717005654524223700,5.6542236328125,-0.820839524269104,-1.8022561073303223,1.8386220932006836
1717005654534233600,5.664233642578125,-0.5388064384460449,-1.5604286193847656,2.0113515853881836
1717005654544212700,5.674212646484375,-0.3690495491027832,-1.361677646636963,2.253723621368408
1717005654554222600,5.68422265625,-0.3217049837112427,-1.2348670959472656,2.7299060821533203
1717005654564232400,5.694232421875,-0.1713641881942749,-1.0780839920043945,3.181795120239258
1717005654574211600,5.704211669921875,0.11032378673553467,-0.951235294342041,3.1491312980651855
1717005654584221400,5.714221435546875,0.23622047901153564,-1.0006599426269531,2.7393627166748047
1717005654594231000,5.72423095703125,0.31180858612060547,-1.2134437561035156,2.1591310501098633
1717005654604210200,5.734210205078125,0.3182253837585449,-1.6054935455322266,1.2867860794067383
1717005654614220000,5.744219970703125,0.4358311891555786,-2.055985927581787,0.2243967056274414
1717005654624230000,5.75422998046875,0.6852356195449829,-2.4673662185668945,-0.9729509353637695
1717005654634209000,5.764208984375,0.953810453414917,-2.703963279724121,-1.839113712310791
1717005654644219000,5.774218994140625,1.0906267166137695,-2.9406142234802246,-2.6271615028381348
1717005654654228700,5.784228759765625,1.0465257167816162,-3.059415817260742,-3.2554874420166016
1717005654664208000,5.794207763671875,0.8014087677001953,-3.235330581665039,-3.764380931854248
1717005654674217700,5.8042177734375,0.5571949481964111,-3.4148290157318115,-4.128709316253662
1717005654684227300,5.814227294921875,0.30582189559936523,-3.5758583545684814,-4.54368782043457
1717005654694206700,5.824206787109375,0.039238929748535156,-3.693887948989868,-4.968877792358398
1717005654704216300,5.83421630859375,-0.2678133249282837,-3.756446599960327,-5.244279384613037
1717005654714226200,5.84422607421875,-0.49817514419555664,-3.76330828666687,-5.3891143798828125
1717005654724236000,5.854236083984375,-0.6303186416625977,-3.8805017471313477,-5.394402503967285
1717005654734215200,5.864215087890625,-0.7057844400405884,-4.112882614135742,-5.267558574676514
1717005654744225000,5.87422509765625,-0.7165583372116089,-4.279475212097168,-5.064062118530273
1717005654754235000,5.88423486328125,-0.8091116547584534,-4.370695114135742,-4.760510444641113
1717005654764214000,5.894214111328125,-1.0393016338348389,-4.559033393859863,-4.599764823913574
1717005654774224000,5.904223876953125,-1.465795636177063,-4.8820037841796875,-4.457873344421387
1717005654784233700,5.914233642578125,-1.740021824836731,-5.055328369140625,-4.339846134185791
1717005654794212900,5.924212890625,-2.0398762226104736,-5.140937328338623,-4.196720123291016
1717005654804222700,5.93422265625,-2.316427707672119,-5.163558006286621,-4.037631511688232
1717005654814232300,5.944232421875,-2.4827077388763428,-5.062657833099365,-3.996382236480713
1717005654824211500,5.95421142578125,-2.494865894317627,-5.058682441711426,-3.8454127311706543
1717005654834221300,5.96422119140625,-2.2741520404815674,-5.1506757736206055,-3.4165124893188477
1717005654844231200,5.974231201171875,-2.098264217376709,-5.447524070739746,-2.821868896484375
1717005654854210300,5.984210205078125,-2.043189287185669,-5.75126838684082,-2.5889878273010254
1717005654864220200,5.99422021484375,-2.0122194290161133,-5.883901119232178,-2.7383804321289062
1717005654874230000,6.00422998046875,-1.946394681930542,-5.955296039581299,-3.2135472297668457
1717005654884209200,6.014209228515625,-1.8559685945510864,-5.878118515014648,-3.585956573486328
1717005654894219000,6.024218994140625,-1.6125462055206299,-5.635036468505859,-3.4179563522338867
1717005654904228600,6.034228515625,-1.1075117588043213,-5.233303070068359,-2.779326915740967
1717005654914207700,6.044207763671875,-0.5898223519325256,-4.594000816345215,-2.4732847213745117
1717005654924217600,6.054217529296875,-0.22522151470184326,-3.520935535430908,-2.4082841873168945
1717005654934227500,6.0642275390625,-0.08739709854125977,-2.5232455730438232,-2.118206024169922
1717005654944206800,6.074206787109375,-0.02924823760986328,-1.4059271812438965,-1.9183831214904785
1717005654954216400,6.084216552734375,-0.020487546920776367,-0.46509432792663574,-2.0293402671813965
1717005654964226300,6.094226318359375,-0.27591657638549805,0.09466314315795898,-2.170314311981201
1717005654974236200,6.104236083984375,-0.8670119643211365,0.1759335994720459,-2.0229978561401367
1717005654984215300,6.11421533203125,-1.4438077211380005,-0.35329270362854004,-1.630723476409912
1717005654994225000,6.124224853515625,-1.6723406314849854,-1.2462878227233887,-1.0883865356445312
1717005655004234800,6.13423486328125,-1.6464104652404785,-2.15779447555542,-0.5034513473510742
1717005655014214000,6.1442138671875,-1.5425772666931152,-2.811767578125,-0.08417224884033203
1717005655024223700,6.1542236328125,-1.5374785661697388,-3.0450925827026367,0.046790122985839844
1717005655034233600,6.164233642578125,-1.6291496753692627,-2.955402374267578,0.10715675354003906
1717005655044212700,6.174212646484375,-1.72893226146698,-2.7436747550964355,0.25035762786865234
1717005655054222600,6.18422265625,-1.7395062446594238,-2.4408297538757324,0.24257946014404297
1717005655064232400,6.194232421875,-1.8649206161499023,-2.047757148742676,-0.03603935241699219
1717005655074211600,6.204211669921875,-1.8669226169586182,-1.496739387512207,-0.1759328842163086
1717005655084221400,6.214221435546875,-1.8720260858535767,-0.8631010055541992,-0.055481910705566406
1717005655094231000,6.22423095703125,-1.7675585746765137,-0.1097865104675293,0.16000938415527344
1717005655104210200,6.234210205078125,-1.6207406520843506,0.7196846008300781,0.27622509002685547
1717005655114220000,6.244219970703125,-1.6697674989700317,1.4597053527832031,0.4737882614135742
1717005655124230000,6.25422998046875,-1.8140532970428467,1.9826955795288086,0.9622592926025391
1717005655134209000,6.264208984375,-1.944469928741455,2.2918360233306885,1.6619606018066406
1717005655144219000,6.274218994140625,-1.987752079963684,2.5322000980377197,2.3532209396362305
1717005655154228700,6.284228759765625,-1.8914216756820679,2.9044251441955566,2.817969799041748
1717005655164207900,6.294207763671875,-1.8148224353790283,3.2024953365325928,3.2081356048583984
1717005655174217700,6.3042177734375,-1.9931273460388184,3.399698495864868,3.578334331512451
1717005655184227300,6.314227294921875,-2.53753399848938,3.47233510017395,3.5877203941345215
1717005655194206700,6.324206787109375,-3.4100546836853027,3.480579137802124,3.302794933319092
1717005655204216300,6.33421630859375,-4.234116554260254,3.3762435913085938,3.0191407203674316
1717005655214226200,6.34422607421875,-4.7738423347473145,3.0445163249969482,3.039271354675293
1717005655224236000,6.354236083984375,-4.698037147521973,2.73124623298645,2.7742724418640137
1717005655234215200,6.364215087890625,-4.076663494110107,2.6118857860565186,2.2433624267578125
1717005655244225000,6.37422509765625,-3.1494407653808594,2.6195273399353027,1.930685043334961
1717005655254235000,6.38423486328125,-2.093064785003662,2.718641996383667,2.1254324913024902
1717005655264214000,6.394214111328125,-1.3375884294509888,2.836895227432251,2.734424591064453
1717005655274223900,6.404223876953125,-0.9662210941314697,2.9592554569244385,3.43764591217041
1717005655284233700,6.414233642578125,-1.0942273139953613,3.14487886428833,4.113232612609863
1717005655294212900,6.424212890625,-1.4892302751541138,3.4292075634002686,4.675742149353027
1717005655304222700,6.43422265625,-2.1749417781829834,3.651259183883667,5.045902729034424
1717005655314232300,6.444232421875,-2.9223008155822754,3.733928918838501,5.23164176940918
1717005655324211500,6.45421142578125,-3.385222911834717,3.754516839981079,5.164365768432617
1717005655334221300,6.46422119140625,-3.3213024139404297,3.6261255741119385,4.843689441680908
1717005655344231200,6.474231201171875,-2.887908697128296,3.3478760719299316,4.464183807373047
1717005655354210300,6.484210205078125,-2.317587375640869,2.9461750984191895,4.25105619430542
1717005655364220200,6.49422021484375,-1.6628870964050293,2.5264840126037598,4.06859016418457
1717005655374230000,6.50422998046875,-1.1254420280456543,2.226815700531006,4.0005059242248535
1717005655384209200,6.514209228515625,-0.6895189881324768,2.1246166229248047,3.926353931427002
1717005655394219000,6.524218994140625,-0.2978794574737549,2.0424556732177734,3.918287754058838
1717005655404228600,6.534228515625,-0.06388354301452637,1.8907475471496582,4.126359939575195
1717005655414207700,6.544207763671875,0.03919219970703125,1.719144344329834,4.406742095947266
1717005655424217600,6.554217529296875,0.020756959915161133,1.444368839263916,4.5422444343566895
1717005655434227500,6.5642275390625,-0.08716213703155518,1.0714340209960938,4.451792240142822
1717005655444206800,6.574206787109375,-0.17840898036956787,0.5727763175964355,4.249329566955566
1717005655454216400,6.584216552734375,-0.09465157985687256,0.11967802047729492,3.8382797241210938
1717005655464226300,6.594226318359375,0.21957683563232422,-0.13393068313598633,3.1837339401245117
1717005655474236200,6.604236083984375,0.6688748598098755,-0.12027645111083984,2.633979320526123
1717005655484215300,6.61421533203125,1.1200608015060425,0.02649402618408203,2.2637038230895996
1717005655494225000,6.624224853515625,1.5923054218292236,0.13658380508422852,2.140183448791504
1717005655504234800,6.63423486328125,1.9277738332748413,-0.13185644149780273,2.494060516357422
1717005655514214000,6.6442138671875,2.030158042907715,-0.813908576965332,2.8067545890808105
1717005655524223700,6.6542236328125,1.9796324968338013,-1.2985119819641113,2.708298683166504
1717005655534233600,6.664233642578125,1.909730076789856,-1.3262181282043457,2.3533501625061035
1717005655544212700,6.674212646484375,1.9533143043518066,-1.0181918144226074,1.7450175285339355
1717005655554222600,6.68422265625,1.9904489517211914,-0.7489471435546875,1.0529837608337402
1717005655564232400,6.694232421875,1.8993226289749146,-0.6619267463684082,0.5573406219482422
1717005655574211600,6.704211669921875,1.8433862924575806,-0.7560839653015137,0.3296022415161133
1717005655584221400,6.714221435546875,1.8745839595794678,-1.0184755325317383,0.4556875228881836
1717005655594231000,6.72423095703125,1.9219921827316284,-1.4713664054870605,0.8597555160522461
1717005655604210200,6.734210205078125,2.0255260467529297,-2.085171699523926,1.2447872161865234
1717005655614220000,6.744219970703125,2.1387429237365723,-2.7031149864196777,1.4083986282348633
1717005655624230000,6.75422998046875,2.250073194503784,-3.167123794555664,1.2820215225219727
1717005655634209000,6.764208984375,2.2894067764282227,-3.3736114501953125,0.7664213180541992
1717005655644219000,6.774218994140625,2.215806007385254,-3.4450340270996094,0.13240718841552734
1717005655654228700,6.784228759765625,1.9164047241210938,-3.5837254524230957,-0.34494972229003906
1717005655664208000,6.794207763671875,1.7126562595367432,-3.614443778991699,-0.7396011352539062
1717005655674217700,6.8042177734375,1.4711946249008179,-3.513659715652466,-1.1368999481201172
1717005655684227300,6.814227294921875,1.2335244417190552,-3.2880678176879883,-1.3291215896606445
1717005655694206700,6.824206787109375,1.1055405139923096,-3.070312023162842,-1.265096664428711
1717005655704216600,6.834216552734375,1.0099916458129883,-2.9069576263427734,-1.2020983695983887
1717005655714226200,6.84422607421875,1.0377227067947388,-2.7188422679901123,-1.1605534553527832
1717005655724236000,6.854236083984375,1.1587477922439575,-2.549104928970337,-1.1130781173706055
1717005655734215200,6.864215087890625,1.1803419589996338,-2.386443614959717,-1.0600385665893555
1717005655744225000,6.87422509765625,1.0000450611114502,-2.190390110015869,-1.0971612930297852
1717005655754235000,6.88423486328125,0.8094155192375183,-2.062098979949951,-1.136042594909668
1717005655764214000,6.894214111328125,0.7165005207061768,-2.0758094787597656,-1.1177539825439453
1717005655774224000,6.904223876953125,0.7967621088027954,-2.1556649208068848,-1.071380615234375
1717005655784233700,6.914233642578125,1.0321273803710938,-2.2332310676574707,-1.0986909866333008
1717005655794212900,6.924212890625,1.2839044332504272,-2.406759262084961,-1.3434581756591797
1717005655804222700,6.93422265625,1.4449334144592285,-2.6461238861083984,-1.7294301986694336
1717005655814232300,6.944232421875,1.6061290502548218,-2.956773519515991,-2.0214757919311523
1717005655824211500,6.95421142578125,1.8559385538101196,-3.227536201477051,-2.4036598205566406
1717005655834221300,6.96422119140625,2.1911697387695312,-3.5152416229248047,-2.6986422538757324
1717005655844231200,6.974231201171875,2.5731191635131836,-3.6843249797821045,-2.9563283920288086
1717005655854210300,6.984210205078125,3.0387988090515137,-3.813558578491211,-3.075021266937256
1717005655864220200,6.99422021484375,3.3599486351013184,-3.8669865131378174,-3.0376319885253906
1717005655874230000,7.00422998046875,3.4668846130371094,-3.9494707584381104,-2.829483985900879
1717005655884209200,7.014209228515625,3.4326486587524414,-4.028286933898926,-2.6114768981933594
1717005655894219000,7.024218994140625,3.26562237739563,-4.09454870223999,-2.3576712608337402
1717005655904228600,7.034228515625,2.990410327911377,-4.22037935256958,-2.1334056854248047
1717005655914207700,7.044207763671875,2.704707145690918,-4.371467590332031,-1.9653739929199219
1717005655924217600,7.054217529296875,2.423449754714966,-4.468777179718018,-1.9928765296936035
1717005655934227500,7.0642275390625,2.1723968982696533,-4.572295665740967,-2.103846549987793
1717005655944206800,7.074206787109375,1.9231288433074951,-4.717193603515625,-2.1880135536193848
1717005655954216400,7.084216552734375,1.6017303466796875,-4.833422660827637,-2.2615842819213867
1717005655964226300,7.094226318359375,1.3273298740386963,-4.888889789581299,-2.31477689743042
1717005655974236200,7.104236083984375,1.1342920064926147,-5.006907939910889,-2.2731528282165527
1717005655984215300,7.11421533203125,1.0718480348587036,-5.139678478240967,-2.2157769203186035
1717005655994225000,7.124224853515625,1.0900437831878662,-5.236518383026123,-2.121084213256836
1717005656004234800,7.13423486328125,1.1859291791915894,-5.288065433502197,-2.0058822631835938
1717005656014214000,7.1442138671875,1.203989863395691,-5.3928446769714355,-1.8463568687438965
1717005656024223700,7.1542236328125,1.0707032680511475,-5.631527900695801,-1.6883492469787598
1717005656034233600,7.164233642578125,0.9633808135986328,-5.6545820236206055,-1.8095636367797852
1717005656044212700,7.174212646484375,0.9449131488800049,-5.619228363037109,-2.0183520317077637
1717005656054222600,7.18422265625,0.8626821041107178,-5.474664688110352,-2.3190555572509766
1717005656064232400,7.194232421875,0.6878963708877563,-5.067403793334961,-2.772778034210205
1717005656074211600,7.204211669921875,0.5632720589637756,-4.38153076171875,-3.3615856170654297
1717005656084221400,7.214221435546875,0.5255930423736572,-3.4701976776123047,-3.912179470062256
1717005656094231000,7.22423095703125,0.6737430095672607,-2.515994071960449,-4.362508773803711
1717005656104210200,7.234210205078125,1.0406134128570557,-1.5452995300292969,-4.489850997924805
1717005656114220000,7.244219970703125,1.406152606010437,-0.8663642406463623,-4.334713935852051
1717005656124230000,7.25422998046875,1.6834385395050049,-0.40395212173461914,-3.8392157554626465
1717005656134209000,7.264208984375,1.7768667936325073,-0.2883265018463135,-3.0256361961364746
1717005656144219000,7.274218994140625,1.5992478132247925,-0.4501006603240967,-1.8827862739562988
1717005656154228700,7.284228759765625,1.1956634521484375,-0.6852285861968994,-0.9415874481201172
1717005656164207900,7.294207763671875,0.5870441198348999,-1.028212308883667,-0.5091009140014648
1717005656174217700,7.3042177734375,0.07955752313137054,-1.5279958248138428,-0.6585474014282227
1717005656184227300,7.314227294921875,-0.16526567935943604,-2.096468448638916,-1.099191665649414
1717005656194206700,7.324206787109375,-0.21512159705162048,-2.701591730117798,-1.5458593368530273
1717005656204216600,7.334216552734375,-0.13435295224189758,-3.1857492923736572,-1.9118266105651855
1717005656214226200,7.34422607421875,0.013030454516410828,-3.520326614379883,-2.001941680908203
1717005656224236000,7.354236083984375,0.042934298515319824,-3.5564424991607666,-1.8656911849975586
1717005656234215200,7.364215087890625,0.06570172309875488,-3.3661415576934814,-1.4530396461486816
1717005656244225000,7.37422509765625,0.06021539866924286,-3.0561587810516357,-0.7186479568481445
1717005656254235000,7.38423486328125,-0.1278606653213501,-2.6047275066375732,-0.14593124389648438
1717005656264214000,7.394214111328125,-0.39453738927841187,-2.1454782485961914,0.19046688079833984
1717005656274223900,7.404223876953125,-0.537233829498291,-1.6895298957824707,0.3330669403076172
1717005656284233700,7.414233642578125,-0.5761159062385559,-1.3060698509216309,0.298492431640625
1717005656294212900,7.424212890625,-0.6632102727890015,-1.0520553588867188,0.2387533187866211
1717005656304222700,7.43422265625,-0.7912293076515198,-0.8853850364685059,0.20686721801757812
1717005656314232300,7.444232421875,-0.8830927610397339,-0.7962989807128906,0.07328319549560547
1717005656324211500,7.45421142578125,-1.0089070796966553,-0.6775798797607422,-0.1062164306640625
1717005656334221300,7.46422119140625,-1.2527964115142822,-0.5549678802490234,-0.07538414001464844
1717005656344231200,7.474231201171875,-1.6795791387557983,-0.3686380386352539,0.1142587661743164
1717005656354210300,7.484210205078125,-2.185229539871216,-0.22097110748291016,0.39687156677246094
1717005656364220200,7.49422021484375,-2.747339963912964,-0.029018878936767578,0.8054180145263672
1717005656374230000,7.50422998046875,-3.083245277404785,0.19401073455810547,1.1403589248657227
1717005656384209200,7.514209228515625,-3.192586898803711,0.38748836517333984,1.1664714813232422
1717005656394219000,7.524218994140625,-3.364671468734741,0.574061393737793,1.1940031051635742
1717005656404228600,7.534228515625,-3.420731782913208,0.7126927375793457,1.363006591796875
1717005656414207700,7.544207763671875,-3.1994380950927734,0.7515921592712402,1.4854888916015625
1717005656424217600,7.554217529296875,-2.973310947418213,0.7173876762390137,1.6165180206298828
1717005656434227500,7.5642275390625,-2.546438217163086,0.5946803092956543,1.6187152862548828
1717005656444206800,7.574206787109375,-2.052198886871338,0.45295190811157227,1.5997047424316406
1717005656454216400,7.584216552734375,-1.5185576677322388,0.411684513092041,1.4705448150634766
1717005656464226300,7.594226318359375,-1.091119647026062,0.43309497833251953,1.329627513885498
1717005656474236200,7.604236083984375,-0.8431895971298218,0.42887449264526367,1.2201557159423828
1717005656484215000,7.614215087890625,-0.6350228786468506,0.3995838165283203,1.0802040100097656
1717005656494225000,7.624224853515625,-0.42579394578933716,0.40537357330322266,1.0009093284606934
1717005656504234800,7.63423486328125,-0.2167397141456604,0.44240903854370117,0.853663444519043
1717005656514214000,7.6442138671875,-0.08292261511087418,0.4350557327270508,0.7684121131896973
1717005656524223700,7.6542236328125,0.02919306606054306,0.3561105728149414,0.7797403335571289
1717005656534233600,7.664233642578125,0.07497136294841766,0.27596521377563477,0.7781586647033691
1717005656544212700,7.674212646484375,0.08108926564455032,0.20257282257080078,0.7761654853820801
1717005656554222600,7.68422265625,0.1404268443584442,0.13633203506469727,0.8075957298278809
1717005656564232400,7.694232421875,0.2878042757511139,-0.02294158935546875,0.7665305137634277
1717005656574211600,7.704211669921875,0.35840338468551636,-0.0903172492980957,0.9138107299804688
1717005656584221400,7.714221435546875,0.4337601065635681,-0.2192554473876953,1.0193872451782227
1717005656594231000,7.72423095703125,0.5154759883880615,-0.3309059143066406,1.139997959136963
1717005656604210200,7.734210205078125,0.6774978637695312,-0.38910675048828125,1.2727508544921875
1717005656614220000,7.744219970703125,0.875339925289154,-0.29845380783081055,1.3476042747497559
1717005656624230000,7.75422998046875,1.1256659030914307,-0.23714113235473633,1.4742207527160645
1717005656634209000,7.764208984375,1.3262866735458374,-0.37712860107421875,1.7062745094299316
1717005656644219000,7.774218994140625,1.603868007659912,-0.7608709335327148,1.9418740272521973
1717005656654228700,7.784228759765625,1.9403836727142334,-1.170654296875,2.0276122093200684
1717005656664208000,7.794207763671875,2.4084668159484863,-1.460649013519287,1.8819727897644043
1717005656674217700,7.8042177734375,2.773298501968384,-1.5533251762390137,1.481651782989502
1717005656684227300,7.814227294921875,2.9733927249908447,-1.3878297805786133,1.063582420349121
1717005656694206700,7.824206787109375,3.1191372871398926,-0.7880582809448242,0.936530590057373
1717005656704216600,7.834216552734375,3.288196325302124,0.023305416107177734,1.1716365814208984
1717005656714226200,7.84422607421875,3.3450355529785156,0.7424721717834473,1.547201156616211
1717005656724236000,7.854236083984375,3.144273519515991,1.2068443298339844,2.0837926864624023
1717005656734215200,7.864215087890625,2.8423824310302734,1.2300081253051758,2.5944175720214844
1717005656744225000,7.87422509765625,2.75473690032959,0.890418529510498,2.913201332092285
1717005656754235000,7.88423486328125,2.7669267654418945,0.32585573196411133,2.8566136360168457
1717005656764214000,7.894214111328125,2.7674713134765625,-0.28314828872680664,2.3338394165039062
1717005656774224000,7.904223876953125,2.708280563354492,-0.8975415229797363,1.6070709228515625
1717005656784233700,7.914233642578125,2.700369119644165,-1.5429606437683105,1.0407791137695312
1717005656794212900,7.924212890625,2.822359800338745,-2.1306920051574707,0.5473747253417969
1717005656804222700,7.93422265625,2.7967233657836914,-2.528092384338379,0.15761375427246094
1717005656814232300,7.944232421875,2.6753878593444824,-2.7862510681152344,-0.05710124969482422
1717005656824211500,7.95421142578125,2.4693515300750732,-2.8933024406433105,0.01390838623046875
1717005656834221300,7.96422119140625,2.157858371734619,-2.887144088745117,0.45740795135498047
1717005656844231200,7.974231201171875,1.8297839164733887,-2.846062183380127,1.16259765625
1717005656854210300,7.984210205078125,1.7056853771209717,-2.8060240745544434,1.830038070678711
1717005656864220200,7.99422021484375,1.6258471012115479,-2.6822290420532227,2.2740840911865234
1717005656874230000,8.00422998046875,1.5319299697875977,-2.556741714477539,2.522645950317383
1717005656884209200,8.014209228515625,1.3914768695831299,-2.455538749694824,2.611452102661133
1717005656894219000,8.024218994140625,1.2902450561523438,-2.3783130645751953,2.400254249572754
1717005656904228600,8.034228515625,1.2879297733306885,-2.394106388092041,1.8389549255371094
1717005656914207700,8.044207763671874,1.4646726846694946,-2.449279308319092,1.055354118347168
1717005656924217600,8.054217529296874,1.7356544733047485,-2.4255194664001465,0.2354135513305664
1717005656934227500,8.0642275390625,1.8623785972595215,-2.4818382263183594,-0.4069862365722656
1717005656944206800,8.074206787109375,1.8951618671417236,-2.5462560653686523,-0.953639030456543
1717005656954216400,8.084216552734375,1.8978931903839111,-2.6075541973114014,-1.4001421928405762
1717005656964226300,8.094226318359375,1.8833433389663696,-2.6909444332122803,-1.7565994262695312
1717005656974236200,8.104236083984375,1.8118946552276611,-2.8790242671966553,-2.0315489768981934
1717005656984215300,8.11421533203125,1.7620394229888916,-3.1402931213378906,-2.207711696624756
1717005656994225000,8.124224853515624,1.6751611232757568,-3.4736297130584717,-2.3441410064697266
1717005657004234800,8.13423486328125,1.5907509326934814,-3.723402500152588,-2.5426759719848633
1717005657014214000,8.1442138671875,1.4069147109985352,-3.930154323577881,-2.855645179748535
1717005657024223700,8.1542236328125,1.088149070739746,-4.064590930938721,-3.2783255577087402
1717005657034233600,8.164233642578125,0.7888067364692688,-4.164648056030273,-3.674520969390869
1717005657044212700,8.174212646484374,0.6723152995109558,-4.231731414794922,-4.075976848602295
1717005657054222600,8.18422265625,0.795321524143219,-4.360671043395996,-4.44819450378418
1717005657064232400,8.194232421875,1.0436656475067139,-4.446276664733887,-4.697877883911133
1717005657074211600,8.204211669921875,1.4327534437179565,-4.633837699890137,-4.642020225524902
1717005657084221400,8.214221435546875,1.7729127407073975,-4.86055850982666,-4.447841644287109
1717005657094231000,8.22423095703125,1.755476713180542,-5.131545543670654,-4.189682960510254
1717005657104210200,8.234210205078124,1.4295662641525269,-5.441514015197754,-3.980712890625
1717005657114220000,8.244219970703124,0.9971409440040588,-5.716331481933594,-3.8376941680908203
1717005657124230000,8.25422998046875,0.709565281867981,-5.947596549987793,-3.8111276626586914
1717005657134209000,8.264208984375,0.6663128733634949,-6.0929107666015625,-4.064022541046143
1717005657144219000,8.274218994140625,1.0067464113235474,-6.152772426605225,-4.328725337982178
1717005657154228700,8.284228759765625,1.5200955867767334,-6.27713680267334,-4.392536163330078
1717005657164207900,8.294207763671874,2.0091140270233154,-6.306633472442627,-4.291555881500244
1717005657174217700,8.3042177734375,2.284918785095215,-6.468554496765137,-3.752753734588623
1717005657184227300,8.314227294921874,2.285348653793335,-6.888341903686523,-2.811694622039795
1717005657194206700,8.324206787109375,1.9541809558868408,-7.195690631866455,-2.3029656410217285
1717005657204216600,8.334216552734375,1.4825935363769531,-7.104983329772949,-2.328887939453125
1717005657214226200,8.34422607421875,0.8524706363677979,-6.767336368560791,-2.657724380493164
1717005657224236000,8.354236083984375,0.3969375491142273,-6.265623092651367,-3.0242204666137695
1717005657234215200,8.364215087890624,0.27175474166870117,-5.775453567504883,-3.260754108428955
1717005657244225000,8.37422509765625,0.46572041511535645,-5.4690117835998535,-3.299668788909912
1717005657254235000,8.38423486328125,0.8854902982711792,-5.210040092468262,-3.3024401664733887
1717005657264214000,8.394214111328125,1.3423042297363281,-4.922033786773682,-3.416398048400879
1717005657274223900,8.404223876953125,1.8888477087020874,-4.537856101989746,-3.583643913269043
1717005657284233700,8.414233642578125,2.563929319381714,-4.007658004760742,-3.712148666381836
1717005657294212900,8.424212890625,3.082277774810791,-3.3164455890655518,-3.9688448905944824
1717005657304222700,8.43422265625,3.139787197113037,-2.6467175483703613,-4.118124485015869
1717005657314232300,8.444232421875,2.6461849212646484,-2.2108030319213867,-4.0275115966796875
1717005657324211500,8.45421142578125,1.964106798171997,-2.210545301437378,-3.6762614250183105
1717005657334221300,8.46422119140625,1.3558927774429321,-2.5212502479553223,-3.2976317405700684
1717005657344231200,8.474231201171875,0.9150762557983398,-2.8679051399230957,-2.9503612518310547
1717005657354210300,8.484210205078124,0.72584468126297,-3.317695379257202,-2.665253162384033
1717005657364220200,8.49422021484375,0.7858795523643494,-3.841437816619873,-2.532773971557617
1717005657374230000,8.50422998046875,1.1870108842849731,-4.462359428405762,-2.512202739715576
1717005657384209200,8.514209228515625,1.7922873497009277,-4.985179901123047,-2.588576316833496
1717005657394219000,8.524218994140625,2.2939486503601074,-5.288296699523926,-2.4810256958007812
1717005657404228600,8.534228515625,2.5410892963409424,-5.483171463012695,-2.120272636413574
1717005657414207700,8.544207763671874,2.606987714767456,-5.384535789489746,-1.682776927947998
1717005657424217600,8.554217529296874,2.503371238708496,-4.9519944190979,-1.1420564651489258
1717005657434227500,8.5642275390625,2.130509614944458,-4.213813304901123,-0.3905220031738281
1717005657444206600,8.57420654296875,1.7992937564849854,-3.518873929977417,0.2938833236694336
1717005657454216400,8.584216552734375,1.5808868408203125,-2.7880592346191406,0.6667261123657227
1717005657464226300,8.594226318359375,1.4790160655975342,-2.088815689086914,0.7341718673706055
1717005657474236200,8.604236083984375,1.387528657913208,-1.5379109382629395,0.7698755264282227
1717005657484215300,8.61421533203125,1.3164141178131104,-1.1408157348632812,0.9782018661499023
1717005657494225000,8.624224853515624,1.3823943138122559,-0.7300291061401367,1.1952781677246094
1717005657504234800,8.63423486328125,1.3654735088348389,-0.2829093933105469,1.4360284805297852
1717005657514214000,8.6442138671875,1.3039854764938354,0.13926458358764648,1.6386899948120117
1717005657524223700,8.6542236328125,1.1408101320266724,0.4872560501098633,1.888533592224121
1717005657534233600,8.664233642578125,0.9374390840530396,0.7495808601379395,2.227128028869629
1717005657544212700,8.674212646484374,0.7318731546401978,0.8817138671875,2.449298858642578
1717005657554222600,8.68422265625,0.6778430342674255,0.9279708862304688,2.4152088165283203
1717005657564232400,8.694232421875,0.7647258639335632,0.9736552238464355,2.275540351867676
1717005657574211600,8.704211669921875,0.6775534749031067,0.8397064208984375,2.1086912155151367
1717005657584221400,8.714221435546875,0.5793466567993164,0.6584181785583496,1.935201644897461
1717005657594231000,8.72423095703125,0.6099663376808167,0.753014087677002,1.7371039390563965
1717005657604210200,8.734210205078124,0.6691485643386841,0.8584136962890625,1.5785112380981445
1717005657614220000,8.744219970703124,0.2980859875679016,0.8132729530334473,1.63023042678833
1717005657624230000,8.75422998046875,-0.15004251897335052,0.7770538330078125,1.4909868240356445
1717005657634209000,8.764208984375,-0.29961568117141724,0.8509058952331543,1.2527055740356445
1717005657644219000,8.774218994140625,-0.19112908840179443,1.0030794143676758,1.3619866371154785
1717005657654228700,8.784228759765625,0.04903466999530792,1.045811653137207,1.6258296966552734
1717005657664208000,8.794207763671874,0.26891040802001953,0.943629264831543,1.659085750579834
1717005657674217700,8.8042177734375,0.5821136236190796,0.8268446922302246,1.5085406303405762
1717005657684227300,8.814227294921874,1.0389723777770996,0.7495880126953125,1.5991559028625488
1717005657694206700,8.824206787109375,1.6535813808441162,0.7711086273193359,1.7959918975830078
1717005657704216600,8.834216552734375,1.7656320333480835,0.8799161911010742,1.7044901847839355
1717005657714226200,8.84422607421875,1.1502546072006226,0.757321834564209,1.8919920921325684
1717005657724236000,8.854236083984375,0.22291713953018188,0.4756608009338379,2.569760322570801
1717005657734215200,8.864215087890624,-0.058978479355573654,0.45914459228515625,2.8693580627441406
1717005657744225000,8.87422509765625,-0.019439667463302612,0.554621696472168,3.0255136489868164
1717005657754235000,8.88423486328125,0.17614991962909698,0.5406999588012695,3.2476844787597656
1717005657764214000,8.894214111328125,0.27388447523117065,0.3961067199707031,3.619779586791992
1717005657774224000,8.904223876953125,0.36667874455451965,0.4420785903930664,3.979262351989746
1717005657784233700,8.914233642578125,0.5083249807357788,0.5755233764648438,4.388266563415527
1717005657794212900,8.924212890625,0.43193840980529785,0.5224032402038574,4.745286464691162
1717005657804222700,8.93422265625,0.1141107976436615,0.4109959602355957,4.637605667114258
1717005657814232300,8.944232421875,-0.23560982942581177,0.38370561599731445,4.344142913818359
1717005657824211500,8.95421142578125,-0.5266971588134766,0.33139562606811523,4.368542671203613
1717005657834221300,8.96422119140625,-0.5967837572097778,0.3329353332519531,4.439913272857666
1717005657844231200,8.974231201171875,-0.4683396816253662,0.38116884231567383,4.462499618530273
1717005657854210300,8.984210205078124,-0.22051161527633667,0.4867892265319824,4.437480449676514
1717005657864220200,8.99422021484375,0.11503784358501434,0.7874140739440918,4.229692459106445
1717005657874230000,9.00422998046875,0.5838202834129333,1.3133187294006348,3.8313140869140625
1717005657884209200,9.014209228515625,0.8285910487174988,1.7983222007751465,3.3882150650024414
1717005657894219000,9.024218994140625,0.8423142433166504,2.2943787574768066,2.91915225982666
1717005657904228600,9.034228515625,0.7200579047203064,2.6296615600585938,2.4611082077026367
1717005657914207700,9.044207763671874,0.5473666787147522,2.6285197734832764,2.1980247497558594
1717005657924217600,9.054217529296874,0.4018409848213196,2.1937079429626465,2.0476174354553223
1717005657934227500,9.0642275390625,0.2586572766304016,1.38356351852417,2.0545663833618164
1717005657944206600,9.07420654296875,0.1931910514831543,0.46764326095581055,2.0461835861206055
1717005657954216400,9.084216552734375,0.1919810175895691,-0.5839576721191406,1.9210939407348633
1717005657964226300,9.094226318359375,0.2975960969924927,-1.6758170127868652,1.541001319885254
1717005657974236200,9.104236083984375,0.43699222803115845,-2.556674003601074,0.9798398017883301
1717005657984215300,9.11421533203125,0.5447174310684204,-2.9508767127990723,0.5700693130493164
1717005657994225000,9.124224853515624,0.44564586877822876,-2.919649600982666,0.4965047836303711
1717005658004234800,9.13423486328125,0.08171908557415009,-2.7577719688415527,0.8861246109008789
1717005658014214000,9.1442138671875,-0.3714328706264496,-2.660073757171631,1.757451057434082
1717005658024223700,9.1542236328125,-0.591352641582489,-2.5596327781677246,2.6162805557250977
1717005658034233600,9.164233642578125,-0.4285305440425873,-2.4624056816101074,3.1330690383911133
1717005658044212700,9.174212646484374,-0.09633691608905792,-2.318739891052246,3.4253005981445312
1717005658054222600,9.18422265625,0.23542091250419617,-2.3090667724609375,3.5273218154907227
1717005658064232400,9.194232421875,0.46336907148361206,-2.359752655029297,3.3814783096313477
1717005658074211600,9.204211669921875,0.48202261328697205,-2.4386181831359863,2.9111289978027344
1717005658084221400,9.214221435546875,0.3274695873260498,-2.614234447479248,2.2647876739501953
1717005658094231000,9.22423095703125,0.16854524612426758,-2.8213653564453125,1.5683279037475586
1717005658104210200,9.234210205078124,0.08565708994865417,-3.061962604522705,1.0612115859985352
1717005658114220000,9.244219970703124,0.1232362687587738,-3.354344606399536,0.5758171081542969
1717005658124230000,9.25422998046875,0.2557099461555481,-3.6449930667877197,0.10748767852783203
1717005658134209000,9.264208984375,0.43183669447898865,-3.958927631378174,-0.36072540283203125
1717005658144219000,9.274218994140625,0.5648657083511353,-4.317760944366455,-0.8618288040161133
1717005658154228700,9.284228759765625,0.6974899768829346,-4.560232162475586,-1.4301605224609375
1717005658164207900,9.294207763671874,0.8411197066307068,-4.779023170471191,-2.0245413780212402
1717005658174217700,9.3042177734375,0.9374647736549377,-4.991987705230713,-2.466010570526123
1717005658184227300,9.314227294921874,0.8799166083335876,-5.185476303100586,-2.8172860145568848
1717005658194206700,9.324206787109375,0.7465394139289856,-5.25581693649292,-2.9601168632507324
1717005658204216600,9.334216552734375,0.6181230545043945,-5.2778120040893555,-2.842517375946045
1717005658214226200,9.34422607421875,0.7250185012817383,-5.222075939178467,-2.73258638381958
1717005658224236000,9.354236083984375,1.3323664665222168,-4.860815048217773,-2.769904613494873
1717005658234215200,9.364215087890624,1.91892409324646,-4.77625846862793,-2.162254810333252
1717005658244225000,9.37422509765625,2.4914920330047607,-4.804014682769775,-1.4955682754516602
1717005658254235000,9.38423486328125,2.702437400817871,-4.7542314529418945,-0.9895315170288086
1717005658264214000,9.394214111328125,2.7270514965057373,-4.090076446533203,-0.9757251739501953
1717005658274223900,9.404223876953125,0.9449248313903809,-4.625321865081787,-3.3405938148498535
1717005658284233700,9.414233642578125,-0.5148634910583496,-4.901299953460693,-4.091149806976318
1717005658294212900,9.424212890625,-0.8034984469413757,-3.963122844696045,-0.7284135818481445
1717005658304222700,9.43422265625,-0.5357959866523743,-3.4687764644622803,2.709794044494629
1717005658314232300,9.444232421875,-0.16660180687904358,-3.967637777328491,1.795201301574707
1717005658324211500,9.45421142578125,0.40700483322143555,-4.87229585647583,-0.5129308700561523
1717005658334221300,9.46422119140625,0.6554099321365356,-4.481654167175293,-0.04221534729003906
1717005658344231200,9.474231201171875,1.1029973030090332,-4.147246360778809,0.20154094696044922
1717005658354210300,9.484210205078124,0.9463455677032471,-3.8197474479675293,0.04646873474121094
1717005658364220200,9.49422021484375,0.24821221828460693,-3.7758870124816895,-0.1771087646484375
1717005658374230000,9.50422998046875,-0.8360570073127747,-4.136368751525879,-0.42800235748291016
1717005658384209200,9.514209228515625,-1.6412580013275146,-4.268776893615723,-0.38385963439941406
1717005658394219000,9.524218994140625,-0.18138575553894043,-4.221042156219482,-0.9496393203735352
1717005658404228600,9.534228515625,-0.9987921714782715,-3.914581060409546,-0.35117149353027344
1717005658414207700,9.544207763671874,-1.3703365325927734,-4.284770965576172,-0.05222892761230469
1717005658424217600,9.554217529296874,-1.7677468061447144,-4.41567325592041,-1.1356592178344727
1717005658434227500,9.5642275390625,-2.9969639778137207,-4.219658851623535,-1.146749496459961
1717005658444206600,9.57420654296875,-4.503541946411133,-4.2161688804626465,0.7454595565795898
1717005658454216400,9.584216552734375,-4.149602890014648,-4.408855438232422,-0.06822013854980469
1717005658464226300,9.594226318359375,-3.052100419998169,-3.886493682861328,-2.220424175262451
1717005658474236200,9.604236083984375,-1.456148386001587,-2.564650535583496,-4.136086940765381
1717005658484215300,9.61421533203125,0.6240410804748535,-1.1656994819641113,-5.730721473693848
1717005658494225000,9.624224853515624,2.631216049194336,-0.6141266822814941,-5.7080888748168945
1717005658504234800,9.63423486328125,3.4123692512512207,-1.8964455127716064,-3.012454032897949
1717005658514214000,9.6442138671875,3.3624930381774902,-1.6553542613983154,-1.3842768669128418
1717005658524223700,9.6542236328125,4.315031051635742,-1.8159704208374023,0.9098858833312988
1717005658534233600,9.664233642578125,4.7088446617126465,-2.519925594329834,2.995695114135742
1717005658544212700,9.674212646484374,4.576755523681641,-2.9139866828918457,3.346625328063965
1717005658554222600,9.68422265625,4.1242499351501465,-3.0087008476257324,2.8760175704956055
1717005658564232400,9.694232421875,3.1678428649902344,-3.033108949661255,1.7093605995178223
1717005658574211600,9.704211669921875,1.9469923973083496,-3.2111711502075195,0.6460847854614258
1717005658584221400,9.714221435546875,-0.18201017379760742,-3.3943638801574707,-0.5748000144958496
1717005658594231000,9.72423095703125,-2.3214166164398193,-4.3545241355896,-0.7717103958129883
1717005658604210200,9.734210205078124,-2.65423846244812,-4.283027172088623,-1.1224603652954102
1717005658614220000,9.744219970703124,-1.9665229320526123,-3.1005749702453613,-1.9088597297668457
1717005658624230000,9.75422998046875,-1.6434285640716553,-2.885988235473633,-2.3121581077575684
1717005658634209000,9.764208984375,-1.7788164615631104,-2.6831777095794678,-2.563765525817871
1717005658644219000,9.774218994140625,-3.375861644744873,-2.3308260440826416,-1.7801942825317383
1717005658654228700,9.784228759765625,-3.0852608680725098,-2.5828120708465576,-0.6751852035522461
1717005658664208000,9.794207763671874,-2.2978320121765137,-3.4630954265594482,0.5232019424438477
1717005658674217700,9.8042177734375,-2.565491199493408,-3.8884682655334473,1.1584906578063965
1717005658684227600,9.8142275390625,-3.0819482803344727,-4.012352466583252,1.2441258430480957
1717005658694206700,9.824206787109375,-4.054363250732422,-3.7988955974578857,0.6743021011352539
1717005658704216600,9.834216552734375,-4.823315620422363,-3.2256767749786377,-0.3444075584411621
1717005658714226200,9.84422607421875,-5.031040668487549,-2.4997313022613525,-1.5204224586486816
1717005658724236000,9.854236083984375,-5.042017459869385,-1.9933509826660156,-2.7632455825805664
1717005658734215200,9.864215087890624,-3.887965440750122,-0.6068334579467773,-5.303165435791016
1717005658744225000,9.87422509765625,-1.1176276206970215,1.4691705703735352,-8.220276832580566
1717005658754235000,9.88423486328125,1.2734413146972656,2.248548984527588,-10.40695571899414
1717005658764214000,9.894214111328125,0.7193012237548828,1.3237786293029785,-9.179938316345215
1717005658774224000,9.904223876953125,-0.4988846778869629,0.0880289077758789,-6.449891567230225
1717005658784233700,9.914233642578125,-1.3386242389678955,-0.7723808288574219,-4.235416889190674
1717005658794212900,9.924212890625,-2.213850498199463,-1.1243009567260742,-3.041966199874878
1717005658804222700,9.93422265625,-2.7763612270355225,-1.5636355876922607,-2.2524666786193848
1717005658814232300,9.944232421875,-3.1148180961608887,-1.8580639362335205,-1.7989788055419922
1717005658824211500,9.95421142578125,-3.8285703659057617,-1.430361270904541,-2.563732147216797
1717005658834221300,9.96422119140625,-3.8874268531799316,-1.372469186782837,-3.2119455337524414
1717005658844231200,9.974231201171875,-3.715176582336426,-1.7468409538269043,-3.726832866668701
1717005658854210300,9.984210205078124,-3.7590737342834473,-2.2124929428100586,-4.14499568939209
1717005658864220200,9.99422021484375,-3.5534727573394775,-2.968353033065796,-2.5787978172302246
1717005658874230000,10.00422998046875,-3.7097485065460205,-4.3735761642456055,-2.167257785797119
1717005658884209200,10.014209228515625,-4.547523021697998,-7.762950420379639,1.9678869247436523
1717005658894219000,10.024218994140625,-4.90848970413208,-11.74520492553711,7.872805595397949
1717005658904228600,10.034228515625,-2.088165521621704,-10.391429901123047,9.088701248168945
1717005658914207700,10.044207763671874,0.6275014877319336,-6.872605323791504,6.831819534301758
1717005658924217600,10.054217529296874,2.852524757385254,-5.0929765701293945,4.673858642578125
1717005658934227500,10.0642275390625,3.6391148567199707,-4.4055352210998535,3.287546157836914
1717005658944206600,10.07420654296875,1.6318607330322266,-3.7576651573181152,2.4422454833984375
1717005658954216400,10.084216552734375,0.1851215362548828,-3.5785999298095703,1.6842641830444336
1717005658964226300,10.094226318359375,-1.5794744491577148,-3.872617244720459,1.0281267166137695
1717005658974236200,10.104236083984375,-2.89678955078125,-4.217958927154541,1.2169098854064941
1717005658984215300,10.11421533203125,-2.8769848346710205,-4.057117462158203,1.6791820526123047
1717005658994225000,10.124224853515624,-2.1680994033813477,-3.7735819816589355,2.3566761016845703
1717005659004234800,10.13423486328125,-1.3342065811157227,-3.928335666656494,2.930990695953369
1717005659014214000,10.1442138671875,0.43936586380004883,-4.473633766174316,3.5359930992126465
1717005659024223700,10.1542236328125,2.8315281867980957,-4.625739097595215,4.179971694946289
1717005659034233600,10.164233642578125,4.365170478820801,-4.2503204345703125,4.630973815917969
1717005659044212700,10.174212646484374,5.071351051330566,-3.7752363681793213,4.328895568847656
1717005659054222600,10.18422265625,6.045076370239258,-2.77362322807312,5.51092004776001
1717005659064232400,10.194232421875,6.0857086181640625,-1.414060115814209,7.449735164642334
1717005659074211600,10.204211669921875,4.766180038452148,-0.7063369750976562,7.818548202514648
1717005659084221400,10.214221435546875,3.3882880210876465,0.04585671424865723,7.159184455871582
1717005659094272800,10.224272705078125,2.939021110534668,1.4134609699249268,5.9286627769470215
1717005659104252000,10.234251953125,2.293039321899414,2.5239243507385254,5.3550705909729
1717005659114261500,10.244261474609376,2.1069726943969727,2.726764678955078,4.061288833618164
1717005659124271400,10.254271240234376,1.4766430854797363,2.1448373794555664,2.6355271339416504
1717005659134250500,10.26425048828125,0.40648889541625977,1.409956455230713,2.2199907302856445
1717005659144260400,10.27426025390625,-0.27880001068115234,0.8427337408065796,2.611722946166992
1717005659154270200,10.284270263671875,-0.43995237350463867,0.8429073095321655,2.2535862922668457
1717005659164249300,10.294249267578126,-0.28584861755371094,0.883965015411377,1.5617170333862305
1717005659174259200,10.30425927734375,0.5248312950134277,0.7224546074867249,0.9052090644836426
1717005659184269000,10.31426904296875,1.188249111175537,0.2219868004322052,0.8033528327941895
1717005659194248200,10.324248291015625,1.21126127243042,-0.2399415671825409,1.3376359939575195
1717005659204258000,10.334258056640625,1.4375228881835938,-0.6106857061386108,2.061516761779785
1717005659214267600,10.344267578125,1.1071486473083496,-0.5242779850959778,2.195777416229248
1717005659224277500,10.354277587890625,0.7234597206115723,-0.18449760973453522,2.6612658500671387
1717005659234256600,10.364256591796876,0.7333102226257324,0.3819168210029602,4.074078559875488
1717005659244266500,10.3742666015625,0.30515146255493164,0.8148290514945984,4.998076915740967
1717005659254276400,10.3842763671875,0.05809164047241211,0.7261489629745483,5.1162238121032715
1717005659264255500,10.39425537109375,-0.13402366638183594,-0.2589429020881653,4.668154716491699
1717005659274265300,10.404265380859375,-0.2931094169616699,-2.0152578353881836,5.044353008270264
1717005659284275200,10.414275146484375,0.2242751121520996,-3.0384907722473145,5.125237464904785
1717005659294254300,10.42425439453125,0.7426824569702148,-2.922433376312256,3.8172683715820312
1717005659304264200,10.43426416015625,0.15732526779174805,-2.6453254222869873,2.9654736518859863
1717005659314273800,10.444273681640626,-1.16259765625,-2.9453012943267822,1.7876510620117188
1717005659324253200,10.454253173828125,-1.6656506061553955,-3.226288318634033,-2.0661630630493164
1717005659334262800,10.4642626953125,-1.0481319427490234,-3.0332939624786377,-5.993385314941406
1717005659344272600,10.474272705078125,-0.6519122123718262,-2.7159337997436523,-6.96351957321167
1717005659354251800,10.484251708984376,-0.4678001403808594,-2.634291648864746,-5.3345842361450195
1717005659364261600,10.49426171875,-0.9428629875183105,-2.9706311225891113,-3.00593900680542
1717005659374271500,10.504271484375,-1.5823266506195068,-2.6016743183135986,-1.307004451751709
1717005659384250600,10.514250732421875,-1.9215714931488037,-2.105714797973633,-0.5361580848693848
1717005659394260500,10.524260498046875,-2.1383814811706543,-1.959496259689331,-0.7672772407531738
1717005659404270300,10.534270263671875,-2.531247854232788,-2.1161139011383057,-1.2679963111877441
1717005659414249500,10.54424951171875,-3.044560432434082,-2.3681185245513916,-0.9462089538574219
1717005659424259300,10.55425927734375,-2.8071837425231934,-2.7544198036193848,-0.4279317855834961
1717005659434269000,10.56426904296875,-2.662930488586426,-2.754178524017334,-0.9694762229919434
1717005659444248000,10.574248046875,-3.061936140060425,-2.0151963233947754,-0.7099008560180664
1717005659454258000,10.5842578125,-2.3420896530151367,-0.16702842712402344,-2.095977306365967
1717005659464267800,10.594267822265625,-1.2022242546081543,2.3091845512390137,-5.98715877532959
1717005659474277600,10.604277587890625,-1.6607260704040527,2.0337181091308594,-9.153339385986328
1717005659484256800,10.6142568359375,-3.6052663326263428,-0.3566141128540039,-9.129012107849121
1717005659494266600,10.6242666015625,-4.82003116607666,-3.3093276023864746,-7.290692329406738
1717005659504276500,10.6342763671875,-4.365733623504639,-4.987040042877197,-4.952201843261719
1717005659514255600,10.644255615234375,-2.684123992919922,-5.820377349853516,-0.8644566535949707
1717005659524265500,10.654265380859375,-0.5561866760253906,-6.154232501983643,2.9204697608947754
1717005659534275000,10.664275146484375,1.1804156303405762,-6.247952938079834,5.905770778656006
1717005659544254200,10.674254150390626,1.795790195465088,-6.2058939933776855,7.185168266296387
1717005659554264000,10.68426416015625,1.6566948890686035,-5.689475059509277,6.748799800872803
1717005659564274000,10.69427392578125,1.9678421020507812,-4.824306964874268,6.044211387634277
1717005659574253000,10.704253173828125,1.7547063827514648,-4.274212837219238,3.9194345474243164
1717005659584263000,10.714262939453125,0.646552562713623,-4.040414333343506,1.3024749755859375
1717005659594272800,10.724272705078125,-0.1738262176513672,-3.8300909996032715,-1.036229133605957
1717005659604252000,10.734251953125,-0.5365962982177734,-3.6286697387695312,-2.258516788482666
1717005659614261500,10.744261474609376,-0.7467451095581055,-3.735827684402466,-1.7990999221801758
1717005659624271400,10.754271240234376,-1.5773749351501465,-4.3475260734558105,-0.5868258476257324
1717005659634250500,10.76425048828125,-2.9559121131896973,-4.944782257080078,0.026028156280517578
1717005659644260400,10.77426025390625,-5.280148029327393,-5.675225257873535,0.6041398048400879
1717005659654270200,10.784270263671875,-6.686824798583984,-6.131137847900391,0.4660162925720215
1717005659664249300,10.794249267578126,-7.481449127197266,-6.375581741333008,0.4993705749511719
1717005659674259200,10.80425927734375,-7.698890686035156,-5.905325889587402,0.4884967803955078
1717005659684269000,10.81426904296875,-7.413225173950195,-5.182406425476074,-0.25312137603759766
1717005659694248200,10.824248291015625,-6.61240816116333,-5.556941032409668,-2.4490089416503906
1717005659704258000,10.834258056640625,-5.861485481262207,-4.644504547119141,-2.820420742034912
1717005659714267600,10.844267578125,-5.038589000701904,-3.5386223793029785,-2.6502389907836914
1717005659724277500,10.854277587890625,-3.964801549911499,-3.137273073196411,-2.2604265213012695
1717005659734256600,10.864256591796876,-2.6516036987304688,-3.292457103729248,-1.5420761108398438
1717005659744266500,10.8742666015625,-1.0129106044769287,-3.3872146606445312,-0.2424297332763672
1717005659754276400,10.8842763671875,0.30701732635498047,-3.3283591270446777,0.9156122207641602
1717005659764255500,10.89425537109375,0.974818229675293,-3.260786533355713,1.2681970596313477
1717005659774265300,10.904265380859375,0.8473711013793945,-3.314260244369507,1.0754432678222656
1717005659784275200,10.914275146484375,0.3344540596008301,-3.547276496887207,0.8525943756103516
1717005659794254300,10.92425439453125,-0.3023996353149414,-4.215424060821533,0.7639293670654297
1717005659804264200,10.93426416015625,-0.8401951789855957,-4.728123664855957,0.7998676300048828
1717005659814273800,10.944273681640626,-1.2765264511108398,-5.164546489715576,1.0806694030761719
1717005659824253200,10.954253173828125,-1.2364263534545898,-5.764142990112305,1.3846406936645508
1717005659834262800,10.9642626953125,3.0472307205200195,-6.7401580810546875,4.856295585632324
1717005659844272600,10.974272705078125,1.487156629562378,-6.4335737228393555,2.9917449951171875
1717005659854251800,10.984251708984376,-0.22153186798095703,-5.794008255004883,4.437445640563965
1717005659864261600,10.99426171875,-0.7318851947784424,-5.430109977722168,3.694303512573242
1717005659874271500,11.004271484375,-0.5143487453460693,-4.728015899658203,2.839895248413086
1717005659884250600,11.014250732421875,0.5662271976470947,-3.1575093269348145,1.2716302871704102
1717005659894260500,11.024260498046875,0.6773457527160645,-1.524806261062622,-0.08858394622802734
1717005659904270300,11.034270263671875,-0.6880875825881958,-1.4407391548156738,-3.4248976707458496
1717005659914249500,11.04424951171875,0.3003807067871094,-0.740380048751831,-4.206787586212158
1717005659924259300,11.05425927734375,0.331615686416626,0.21027684211730957,-2.195303440093994
1717005659934269000,11.06426904296875,0.7939882278442383,1.9869508743286133,1.753199577331543
1717005659944248000,11.074248046875,1.7823752164840698,1.7228069305419922,2.2054271697998047
1717005659954258000,11.0842578125,1.0218298435211182,0.6543023586273193,1.3248367309570312
1717005659964267800,11.094267822265625,-0.1325451135635376,-0.14445829391479492,2.36807918548584
1717005659974277600,11.104277587890625,-0.7302902936935425,-0.38910627365112305,2.3018312454223633
1717005659984256800,11.1142568359375,-0.9730514883995056,-0.10982894897460938,1.4812040328979492
1717005659994266600,11.1242666015625,-1.119816541671753,0.40190863609313965,0.3993215560913086
1717005660004276500,11.1342763671875,-1.120664358139038,0.6969361305236816,-0.5830459594726562
1717005660014255600,11.144255615234375,-0.7629706859588623,0.8589987754821777,-1.1241931915283203
1717005660024265500,11.154265380859375,-0.16602754592895508,0.9890141487121582,-0.8124332427978516
1717005660034275000,11.164275146484375,0.22489714622497559,1.1404469013214111,0.1948719024658203
1717005660044254200,11.174254150390626,-0.7759230136871338,1.2986366748809814,1.1775121688842773
1717005660054264000,11.18426416015625,1.403948187828064,1.265237808227539,0.5274276733398438
1717005660064274000,11.19427392578125,1.730074167251587,1.4168572425842285,0.4067497253417969
1717005660074253000,11.204253173828125,0.9011213779449463,1.742082118988037,0.6440496444702148
1717005660084263000,11.214262939453125,1.0077264308929443,1.9877650737762451,0.5689525604248047
1717005660094272800,11.224272705078125,1.024062156677246,2.0759403705596924,0.5457324981689453
1717005660104252000,11.234251953125,0.5827758312225342,2.127272605895996,0.46056652069091797
1717005660114261500,11.244261474609376,0.11863422393798828,2.2719507217407227,0.8268647193908691
1717005660124271400,11.254271240234376,-0.31610357761383057,2.4050774574279785,1.3640365600585938
1717005660134250500,11.26425048828125,-0.6896470189094543,2.540421485900879,1.8944683074951172
1717005660144260400,11.27426025390625,-0.9087450504302979,2.5914669036865234,2.522894859313965
1717005660154270200,11.284270263671875,-0.8619733452796936,2.540534257888794,2.907433032989502
1717005660164249300,11.294249267578126,-1.248072862625122,2.120762825012207,3.4099607467651367
1717005660174259200,11.30425927734375,-2.113257646560669,1.1215400695800781,3.99147891998291
1717005660184269000,11.31426904296875,-2.760342597961426,0.2479705810546875,4.357848644256592
1717005660194248200,11.324248291015625,-2.658252000808716,0.4016108512878418,4.266130447387695
1717005660204258000,11.334258056640625,-2.3105344772338867,0.846196174621582,3.162177085876465
1717005660214267600,11.344267578125,-2.073538303375244,2.4160337448120117,3.5766921043395996
1717005660224277500,11.354277587890625,-1.7736141681671143,3.5077271461486816,5.076996803283691
1717005660234256600,11.364256591796876,-1.4106149673461914,3.37784743309021,7.191189765930176
1717005660244266500,11.3742666015625,-1.3592734336853027,2.398165702819824,8.825048446655273
1717005660254276400,11.3842763671875,-1.4713678359985352,1.5138282775878906,9.644660949707031
1717005660264255500,11.39425537109375,-1.5587124824523926,1.071789264678955,9.454439163208008
1717005660274265300,11.404265380859375,-1.319995403289795,0.8893647193908691,9.017095565795898
1717005660284275200,11.414275146484375,-0.9330798983573914,0.7893838882446289,8.150579452514648
1717005660294254300,11.42425439453125,-0.42133450508117676,1.0523200035095215,6.665225505828857
1717005660304264200,11.43426416015625,0.04049161076545715,1.58443021774292,5.1205267906188965
1717005660314273800,11.444273681640626,0.37405306100845337,2.0576367378234863,3.6641125679016113
1717005660324253200,11.454253173828125,0.4648287892341614,2.342986583709717,2.577634334564209
1717005660334262800,11.4642626953125,0.4655226171016693,2.5673651695251465,2.0646743774414062
1717005660344272600,11.474272705078125,0.5260714888572693,2.7341408729553223,2.051124095916748
1717005660354251800,11.484251708984376,0.7328612804412842,2.8498082160949707,2.2552642822265625
1717005660364261600,11.49426171875,0.9831085801124573,2.8670568466186523,2.4044008255004883
1717005660374271500,11.504271484375,1.7565536499023438,2.6909422874450684,3.1676535606384277
1717005660384250600,11.514250732421875,2.1403279304504395,2.282303810119629,2.7879648208618164
1717005660394260500,11.524260498046875,2.1696739196777344,1.7239689826965332,2.5148534774780273
1717005660404270300,11.534270263671875,3.152693033218384,0.9083309173583984,2.1459693908691406
1717005660414249500,11.54424951171875,3.133452892303467,-0.11763811111450195,1.758469581604004
1717005660424259300,11.55425927734375,2.8752644062042236,-1.257906436920166,1.978691577911377
1717005660434269000,11.56426904296875,2.725741386413574,-2.4532809257507324,1.8780732154846191
1717005660444248000,11.574248046875,2.9794154167175293,-3.5504679679870605,1.4924063682556152
1717005660454258000,11.5842578125,3.1257882118225098,-4.2899861335754395,0.8437728881835938
1717005660464267800,11.594267822265625,3.021085262298584,-4.554832935333252,-0.004614830017089844
1717005660474277600,11.604277587890625,2.8282785415649414,-4.535560607910156,-0.8482108116149902
1717005660484256800,11.6142568359375,2.4188365936279297,-4.22608757019043,-1.4917864799499512
1717005660494266600,11.6242666015625,1.9973523616790771,-3.7963805198669434,-1.6539945602416992
1717005660504276500,11.6342763671875,1.6158099174499512,-3.3008599281311035,-1.5089287757873535
1717005660514255600,11.644255615234375,1.2848724126815796,-2.8664045333862305,-1.1994848251342773
1717005660524265500,11.654265380859375,0.9350944757461548,-2.506772994995117,-0.6524829864501953
1717005660534275000,11.664275146484375,0.6087293028831482,-2.2699594497680664,-0.01993846893310547
1717005660544254200,11.674254150390626,0.1585422158241272,-2.1374025344848633,0.5306596755981445
1717005660554264000,11.68426416015625,-0.08680254220962524,-2.064694881439209,0.9780998229980469
1717005660564274000,11.69427392578125,-0.11151659488677979,-2.0438876152038574,1.3544502258300781
1717005660574253000,11.704253173828125,-0.07728028297424316,-2.0662693977355957,1.5951690673828125
1717005660584263000,11.714262939453125,0.054599881172180176,-2.1120963096618652,1.6006803512573242
1717005660594272800,11.724272705078125,0.23472726345062256,-2.197566032409668,1.3662290573120117
1717005660604252000,11.734251953125,0.4846898317337036,-2.375011682510376,1.1367807388305664
1717005660614261500,11.744261474609376,0.754930317401886,-2.5568044185638428,0.7897891998291016
1717005660624271400,11.754271240234376,0.9953483939170837,-2.694627046585083,0.28272438049316406
1717005660634250800,11.764250732421875,1.1909875869750977,-2.7952167987823486,-0.13561248779296875
1717005660644260400,11.77426025390625,1.4240984916687012,-2.822143316268921,-0.5047874450683594
1717005660654270200,11.784270263671875,1.5801284313201904,-2.9032766819000244,-0.7375326156616211
1717005660664249300,11.794249267578126,1.6992697715759277,-3.058321952819824,-0.936396598815918
1717005660674259200,11.80425927734375,1.8771069049835205,-3.2232329845428467,-1.081690788269043
1717005660684269000,11.81426904296875,2.072422981262207,-3.3908767700195312,-1.1692113876342773
1717005660694248200,11.824248291015625,2.2385752201080322,-3.53600811958313,-1.2153911590576172
1717005660704258000,11.834258056640625,2.1786704063415527,-3.664381742477417,-1.1685218811035156
1717005660714267600,11.844267578125,1.9586634635925293,-3.8167550563812256,-1.0646934509277344
1717005660724277500,11.854277587890625,1.6281678676605225,-3.9768905639648438,-0.93994140625
1717005660734256600,11.864256591796876,1.3662511110305786,-4.146604537963867,-0.7507848739624023
1717005660744266500,11.8742666015625,1.2156257629394531,-4.289607048034668,-0.603083610534668
1717005660754276400,11.8842763671875,1.0868202447891235,-4.502310752868652,-0.547816276550293
1717005660764255500,11.89425537109375,0.9990625381469727,-4.756501197814941,-0.5349788665771484
1717005660774265300,11.904265380859375,0.941057562828064,-5.010234355926514,-0.5806169509887695
1717005660784275200,11.914275146484375,0.8681964874267578,-5.263034820556641,-0.8023719787597656
1717005660794254300,11.92425439453125,0.7939833402633667,-5.47749662399292,-1.0924310684204102
1717005660804264200,11.93426416015625,0.7219365835189819,-5.735945701599121,-1.292740821838379
1717005660814273800,11.944273681640626,0.7529066801071167,-6.049775123596191,-1.537510871887207
1717005660824253200,11.954253173828125,0.973052978515625,-6.23322057723999,-1.8967018127441406
1717005660834262800,11.9642626953125,1.0947561264038086,-6.3323140144348145,-2.162539482116699
1717005660844272600,11.974272705078125,1.1198441982269287,-6.538898944854736,-2.324016571044922
1717005660854251800,11.984251708984376,0.9493557214736938,-6.875888824462891,-2.5322132110595703
1717005660864261600,11.99426171875,0.7068561315536499,-7.192707538604736,-2.7659668922424316
1717005660874271500,12.004271484375,0.5291188955307007,-7.391451358795166,-3.134835720062256
1717005660884250600,12.014250732421875,0.6210191249847412,-7.326266765594482,-3.715249538421631
1717005660894260500,12.024260498046875,0.9382311105728149,-7.055834770202637,-4.3539910316467285
1717005660904270300,12.034270263671875,1.3425607681274414,-6.751888751983643,-5.065485954284668
1717005660914249500,12.04424951171875,1.485666036605835,-6.283796310424805,-5.850577354431152
1717005660924259300,12.05425927734375,1.5240496397018433,-5.722381114959717,-6.455483436584473
1717005660934269000,12.06426904296875,1.6253424882888794,-5.118019104003906,-6.982363700866699
1717005660944248000,12.074248046875,1.7901411056518555,-4.507854461669922,-7.296095371246338
1717005660954258000,12.0842578125,1.9087159633636475,-3.9786291122436523,-7.2372660636901855
1717005660964267800,12.094267822265625,2.0397231578826904,-3.6113712787628174,-6.917594909667969
1717005660974277600,12.104277587890625,2.2501978874206543,-3.4473319053649902,-6.510448455810547
1717005660984256800,12.1142568359375,2.255455493927002,-3.4373016357421875,-5.842761516571045
1717005660994266600,12.1242666015625,2.173375129699707,-3.4491000175476074,-5.076292991638184
1717005661004276500,12.1342763671875,1.9244561195373535,-3.4222960472106934,-4.55288028717041
1717005661014255600,12.144255615234375,1.6507221460342407,-3.3093626499176025,-4.020819187164307
1717005661024265500,12.154265380859375,1.2584178447723389,-3.227902889251709,-3.298215389251709
1717005661034275000,12.164275146484375,0.7654657363891602,-3.275050640106201,-2.6703600883483887
1717005661044254200,12.174254150390626,0.3723830580711365,-3.6468472480773926,-2.0155653953552246
1717005661054264000,12.18426416015625,-0.04879194498062134,-4.229990005493164,-1.0856380462646484
1717005661064274000,12.19427392578125,-0.2621881663799286,-4.925517559051514,0.06666755676269531
1717005661074253000,12.204253173828125,-0.38427916169166565,-5.66071891784668,0.9683065414428711
1717005661084263000,12.214262939453125,-0.4084336757659912,-6.155612468719482,1.3426313400268555
1717005661094272800,12.224272705078125,-0.14964181184768677,-6.190090179443359,1.1547260284423828
1717005661104252000,12.234251953125,-0.09359139204025269,-5.676266193389893,0.30462074279785156
1717005661114261500,12.244261474609376,0.3362019658088684,-4.761443614959717,-0.9323854446411133
1717005661124271400,12.254271240234376,0.6718246340751648,-3.9675450325012207,-1.515535831451416
1717005661134250500,12.26425048828125,0.7436498999595642,-3.359616756439209,-1.3049602508544922
1717005661144260400,12.27426025390625,0.7335041165351868,-2.6854264736175537,-0.7972707748413086
1717005661154270200,12.284270263671875,0.6925135850906372,-2.1439247131347656,0.09625530242919922
1717005661164249300,12.294249267578126,0.688146710395813,-1.6760673522949219,1.3244848251342773
1717005661174259200,12.30425927734375,0.760198712348938,-1.2699651718139648,2.409268379211426
1717005661184269000,12.31426904296875,0.730841338634491,-0.8372197151184082,3.2065916061401367
1717005661194248200,12.324248291015625,0.6302724480628967,-0.3648829460144043,3.6667251586914062
1717005661204258000,12.334258056640625,0.6942100524902344,0.12249326705932617,3.727999687194824
1717005661214267600,12.344267578125,0.6981343030929565,0.5648221969604492,3.5546865463256836
1717005661224277500,12.354277587890625,0.48476386070251465,0.8054342269897461,3.2666234970092773
1717005661234256600,12.364256591796876,0.10928148776292801,0.8774304389953613,2.984518051147461
1717005661244266500,12.3742666015625,-0.21565160155296326,0.9167523384094238,2.9626855850219727
1717005661254276400,12.3842763671875,-0.4204457402229309,0.9318299293518066,3.212371826171875
1717005661264255500,12.39425537109375,-0.5687186121940613,1.0567264556884766,3.3900136947631836
1717005661274265300,12.404265380859375,-0.7430506944656372,1.3670263290405273,3.556875228881836
1717005661284275200,12.414275146484375,-0.8698189854621887,1.7013158798217773,3.7278881072998047
1717005661294254300,12.42425439453125,-0.9543232917785645,2.009068250656128,3.8577065467834473
1717005661304264200,12.43426416015625,-0.9555068016052246,2.2345266342163086,3.8902335166931152
1717005661314273800,12.444273681640626,-0.9373466968536377,2.455374240875244,3.8502440452575684
1717005661324253200,12.454253173828125,-0.8528600931167603,2.611220359802246,3.681692600250244
1717005661334262800,12.4642626953125,-0.6547787189483643,2.7291247844696045,3.4355697631835938
1717005661344272600,12.474272705078125,-0.4422524571418762,2.748504400253296,3.251659870147705
1717005661354251800,12.484251708984376,-0.32030922174453735,2.735015392303467,3.034668445587158
1717005661364261600,12.49426171875,-0.14198341965675354,2.747802734375,2.9485554695129395
1717005661374271500,12.504271484375,0.09889861941337585,2.797441005706787,2.9317846298217773
1717005661384250600,12.514250732421875,0.36079949140548706,2.7736921310424805,2.8860831260681152
1717005661394260500,12.524260498046875,0.5137890577316284,2.682811737060547,2.765204906463623
1717005661404270300,12.534270263671875,0.5363222360610962,2.515470266342163,2.6316661834716797
1717005661414249500,12.54424951171875,0.3936699628829956,2.353987693786621,2.5891995429992676
1717005661424259300,12.55425927734375,0.4011949300765991,2.1953086853027344,2.624967575073242
1717005661434269000,12.56426904296875,0.5265284180641174,2.041980266571045,2.732022762298584
1717005661444248000,12.574248046875,0.7080569267272949,1.8226971626281738,2.908510208129883
1717005661454258000,12.5842578125,0.8741848468780518,1.520988941192627,3.152398109436035
1717005661464267800,12.594267822265625,1.1306315660476685,1.1343021392822266,3.497250556945801
1717005661474277600,12.604277587890625,1.3968842029571533,0.6885261535644531,3.825432300567627
1717005661484256800,12.6142568359375,1.6568543910980225,0.17561960220336914,4.062047004699707
1717005661494266600,12.6242666015625,1.9710981845855713,-0.33519649505615234,4.281154632568359
1717005661504276500,12.6342763671875,2.249643087387085,-0.8180832862854004,4.417999267578125
1717005661514255600,12.644255615234375,2.442711591720581,-1.037381649017334,4.42789888381958
1717005661524265500,12.654265380859375,2.674713611602783,-0.9425473213195801,4.100535869598389
1717005661534275000,12.664275146484375,2.9240550994873047,-0.559417724609375,3.5127363204956055
1717005661544254200,12.674254150390626,3.096074104309082,-0.13396883010864258,2.9566187858581543
1717005661554264000,12.68426416015625,3.244304656982422,0.24506473541259766,2.4093070030212402
1717005661564274000,12.69427392578125,3.465785026550293,0.5330991744995117,2.070463180541992
1717005661574253000,12.704253173828125,3.657182216644287,0.6029562950134277,1.9265785217285156
1717005661584263000,12.714262939453125,3.95074462890625,0.5675826072692871,1.7349786758422852
1717005661594272800,12.724272705078125,4.302326202392578,0.4615030288696289,1.4730873107910156
