time,seconds_elapsed,z,y,x
1717005648943806000,0.073805908203125,-0.7580837607383728,-0.40256020426750183,0.4746423065662384
1717005648954381300,0.08438134765625,-0.7580837607383728,-0.40256020426750183,0.4746423065662384
1717005648964375600,0.09437548828125,-0.7580837607383728,-0.40256020426750183,0.4746423065662384
1717005648974401000,0.104401123046875,-0.7580837607383728,-0.40256020426750183,0.4746423065662384
1717005648984364800,0.11436474609375,1.5931365489959717,-4.57293701171875,2.490497589111328
1717005648994392000,0.12439208984375,1.5326608419418335,-3.5637879371643066,2.950479030609131
1717005649004384300,0.13438427734375,1.166752576828003,-3.48071026802063,2.618168354034424
1717005649014379000,0.14437890625,0.5937610268592834,-1.9364428520202637,1.0891727209091187
1717005649024373000,0.154373046875,0.24923302233219147,-0.7507534027099609,0.40683624148368835
1717005649034403600,0.164403564453125,0.2987131178379059,0.4043927788734436,-0.00855211354792118
1717005649044362200,0.1743623046875,0.4447098970413208,0.6817256212234497,-0.5088507533073425
1717005649054395000,0.184394775390625,0.769079327583313,0.39217549562454224,-0.9877691268920898
1717005649064381700,0.194381591796875,1.13926362991333,0.039095375686883926,-1.1197160482406616
1717005649074381800,0.2043818359375,1.436144232749939,-0.12889257073402405,-0.9676105380058289
1717005649084370700,0.21437060546875,1.6389514207839966,-0.18875735998153687,-0.5564982295036316
1717005649094402000,0.224402099609375,1.7519614696502686,-0.4056145250797272,0.012217304669320583
1717005649104359700,0.234359619140625,1.786780834197998,-0.8533787727355957,0.5852088928222656
1717005649114390300,0.244390380859375,1.700037956237793,-0.93095862865448,1.0286970138549805
1717005649124379400,0.25437939453125,1.4966198205947876,-0.9138544201850891,1.2082914113998413
1717005649134379500,0.264379638671875,1.2932016849517822,-0.7605272531509399,1.1270463466644287
1717005649144367400,0.274367431640625,1.1410962343215942,-0.3701843321323395,0.8185594081878662
1717005649154398700,0.284398681640625,1.0757336616516113,0.17837265133857727,0.34574973583221436
1717005649164356900,0.29435693359375,1.2131783962249756,1.359175205230713,-0.45265114307403564
1717005649174387200,0.30438720703125,1.4147639274597168,1.958433985710144,-0.9902125597000122
1717005649184376300,0.314376220703125,1.5387696027755737,2.0586159229278564,-1.3585642576217651
1717005649194376400,0.32437646484375,1.5259413719177246,1.8625280857086182,-1.4880677461624146
1717005649204365300,0.334365234375,1.4062118530273438,1.4599679708480835,-1.4306464195251465
1717005649214395600,0.344395751953125,1.2113457918167114,0.8295549750328064,-1.2516628503799438
1717005649224385000,0.354385009765625,0.9450085163116455,0.021991148591041565,-0.9443976879119873
1717005649234385000,0.364385009765625,0.6108652353286743,-0.7061602473258972,-0.5094616413116455
1717005649244374300,0.374374267578125,0.22113321721553802,-1.2528846263885498,-0.025045474991202354
1717005649254404600,0.384404541015625,-0.14477506279945374,-1.5809192657470703,0.39217549562454224
1717005649264363300,0.39436328125,-0.3689626157283783,-1.595579981803894,0.7055493593215942
1717005649274393600,0.4043935546875,-0.40622538328170776,-1.3005321025848389,0.8704829812049866
1717005649284382700,0.4143828125,-0.34697145223617554,-0.7733554244041443,0.7959573864936829
1717005649294382800,0.4243828125,-0.2840523421764374,-0.2632829248905182,0.5082398653030396
1717005649304371700,0.434371826171875,-0.2590068578720093,0.059864792972803116,0.1160643994808197
1717005649314402600,0.444402587890625,-0.313373863697052,0.16798794269561768,-0.30604347586631775
1717005649324361000,0.45436083984375,-0.46670106053352356,0.10201449692249298,-0.7159340381622314
1717005649334391300,0.464391357421875,-0.6304129362106323,-0.07513642311096191,-1.0543533563613892
1717005649344380400,0.47438037109375,-0.7257078886032104,-0.4105014503002167,-1.3072515726089478
1717005649354381000,0.484381103515625,-0.7018841505050659,-0.7220427393913269,-1.405600905418396
1717005649364369400,0.494369384765625,-0.6126978397369385,-0.8442157506942749,-1.3439035415649414
1717005649374399700,0.504399658203125,-0.523511528968811,-0.7018841505050659,-1.169806957244873
1717005649384358400,0.5143583984375,-0.49235737323760986,-0.3891211748123169,-0.8979719281196594
1717005649394389000,0.524388916015625,-0.5705481171607971,-0.11972958594560623,-0.6010913848876953
1717005649404377900,0.5343779296875,-0.7031059265136719,-0.05925392732024193,-0.3793473243713379
1717005649414378800,0.544378662109375,-0.7849618196487427,-0.21502456068992615,-0.2571742534637451
1717005649424367000,0.5543671875,-0.7611380815505981,-0.5204572081565857,-0.1771509200334549
1717005649434398200,0.564398193359375,-0.6407976150512695,-0.8222246170043945,-0.12400564551353455
1717005649444356000,0.574356201171875,-0.4648684561252594,-1.0030407905578613,-0.08307767659425735
1717005649454387200,0.58438720703125,-0.27550023794174194,-1.0305296182632446,-0.03726277872920036
1717005649464375600,0.59437548828125,-0.13744467496871948,-0.9046914577484131,-0.0024434609804302454
1717005649474406000,0.604406005859375,-0.0910189226269722,-0.6524040699005127,0.029932396486401558
1717005649484364800,0.61436474609375,-0.13988813757896423,-0.35613444447517395,0.05619960278272629
1717005649494395100,0.62439501953125,-0.2669481039047241,-0.048258353024721146,0.04948008432984352
1717005649504384300,0.63438427734375,-0.43676865100860596,0.2217440903186798,0.06963863968849182
1717005649514385000,0.644385009765625,-0.607200026512146,0.25595253705978394,0.09773843735456467
1717005649524373000,0.654373046875,-0.7141014933586121,0.14049901068210602,0.1160643994808197
1717005649534404400,0.664404296875,-0.7324274182319641,-0.036651913076639175,0.10934487730264664
1717005649544362200,0.6743623046875,-0.6762278079986572,-0.2015855312347412,0.07269296050071716
1717005649554393600,0.6843935546875,-0.5729916095733643,-0.29993483424186707,0.025656340643763542
1717005649564381700,0.694381591796875,-0.44837507605552673,-0.3488040566444397,-0.003054326167330146
1717005649574382600,0.704382568359375,-0.3194825351238251,-0.3579670190811157,0
1717005649584370700,0.71437060546875,-0.21135938167572021,-0.37690386176109314,0.06352998316287994
1717005649594401800,0.72440185546875,-0.1667662113904953,-0.3854559659957886,0.16310101747512817
1717005649604359400,0.734359375,-0.23945917189121246,-0.3805690407752991,0.2272418737411499
1717005649614390000,0.74439013671875,-0.46792277693748474,-0.20586158335208893,0.28527405858039856
1717005649624379100,0.754379150390625,-0.7996225953102112,-0.009162978269159794,0.2993239760398865
1717005649634379300,0.764379150390625,-1.0977247953414917,0.13072516024112701,0.24495697021484375
1717005649644368100,0.7743681640625,-1.2504411935806274,0.2687807083129883,0.13072516024112701
1717005649654399700,0.784399658203125,-1.2272282838821411,0.40622538328170776,-0.027488935738801956
1717005649664357400,0.794357421875,-1.0793988704681396,0.5265658497810364,-0.17531833052635193
1717005649674388700,0.804388671875,-0.8930850028991699,0.5296201705932617,-0.27488934993743896
1717005649684376800,0.814376953125,-0.720820963382721,0.40072759985923767,-0.3188716471195221
1717005649694377700,0.824377685546875,-0.5674937963485718,0.22663100063800812,-0.30054569244384766
1717005649704365600,0.834365478515625,-0.4502076804637909,0.03298672288656235,-0.2278527319431305
1717005649714397200,0.844397216796875,-0.394008070230484,-0.18081611394882202,-0.09896016865968704
1717005649724385300,0.85438525390625,-0.39706242084503174,-0.3787364661693573,0.07819075137376785
1717005649734385400,0.864385498046875,-0.4697553813457489,-0.485027015209198,0.31154128909111023
1717005649744374300,0.874374267578125,-0.5876523852348328,-0.513126790523529,0.5387831330299377
1717005649754404900,0.88440478515625,-0.7287622094154358,-0.45692721009254456,0.7733554244041443
1717005649764363300,0.89436328125,-0.7446447610855103,-0.35674530267715454,0.8381071090698242
1717005649774393900,0.904393798828125,-0.7342600226402283,-0.2638937830924988,0.8057312369346619
1717005649784382700,0.9143828125,-0.7458664774894714,-0.11667526513338089,0.7122688889503479
1717005649794386000,0.924385986328125,-0.7715228199958801,0.022602014243602753,0.5919284224510193
1717005649804371700,0.934371826171875,-0.7837401032447815,0.07024950534105301,0.4715879559516907
1717005649814405400,0.9444052734375,-0.7782423496246338,0.0403171069920063,0.3597996234893799
1717005649824361000,0.95436083984375,-0.7666358947753906,-0.003054326167330146,0.24007004499435425
1717005649834394400,0.964394287109375,-0.7483099102973938,-0.00855211354792118,0.12889257073402405
1717005649844380400,0.97438037109375,-0.7128797173500061,0.02015855349600315,0.048258353024721146
1717005649854381000,0.984381103515625,-0.6524040699005127,0.04581489413976669,0.019547687843441963
1717005649864369400,0.994369384765625,-0.5907067060470581,0.028099801391363144,0.07208210229873657
1717005649874400500,1.004400390625,-0.5448917746543884,0.00855211354792118,0.17959438264369965
1717005649884358400,1.0143583984375,-0.5082398653030396,-0.014049900695681572,0.29504790902137756
1717005649894390000,1.02439013671875,-0.4862487316131592,-0.0354301854968071,0.4050036668777466
1717005649904378000,1.034378173828125,-0.4893030524253845,-0.08002334833145142,0.5094616413116455
1717005649914378500,1.04437841796875,-0.5051855444908142,-0.12400564551353455,0.6029239892959595
1717005649924367000,1.0543671875,-0.5247332453727722,-0.16310101747512817,0.675006091594696
1717005649934400300,1.064400146484375,-0.5485569834709167,-0.18997909128665924,0.6969972252845764
1717005649944356000,1.074356201171875,-0.5674937963485718,-0.20341812074184418,0.6572909951210022
1717005649954389200,1.08438916015625,-0.5650503635406494,-0.19792033731937408,0.5803219676017761
1717005649964375600,1.09437548828125,-0.5571091175079346,-0.1508837193250656,0.49846604466438293
1717005649974409000,1.104408935546875,-0.5247332453727722,-0.06108652427792549,0.42271876335144043
1717005649984364800,1.11436474609375,-0.46181413531303406,0.07208210229873657,0.3683517575263977
1717005649994398000,1.12439794921875,-0.394618958234787,0.1661553531885147,0.34025195240974426
1717005650004384300,1.13438427734375,-0.3194825351238251,0.1820378452539444,0.3439171314239502
1717005650014387000,1.144386962890625,-0.24373523890972137,0.17104226350784302,0.38728857040405273
1717005650024373000,1.154373046875,-0.19975294172763824,0.16371189057826996,0.4489859640598297
1717005650034406400,1.164406494140625,-0.1918116807937622,0.15271630883216858,0.5064072608947754
1717005650044362200,1.1743623046875,-0.20952677726745605,0.10812314599752426,0.5497786998748779
1717005650054395600,1.184395751953125,-0.24373523890972137,0.02871066704392433,0.5736024379730225
1717005650064381700,1.194381591796875,-0.2822197377681732,-0.06902777403593063,0.5638286471366882
1717005650074384400,1.20438427734375,-0.30970868468284607,-0.15943582355976105,0.5210680365562439
1717005650084401200,1.214401123046875,-0.30604347586631775,-0.20402899384498596,0.45326200127601624
1717005650094403800,1.22440380859375,-0.28527405858039856,-0.18081611394882202,0.394008070230484
1717005650104359700,1.234359619140625,-0.2638937830924988,-0.09040805697441101,0.35613444447517395
1717005650114393000,1.24439306640625,-0.23090706765651703,0.02932153269648552,0.3292563557624817
1717005650124379100,1.254379150390625,-0.18936823308467865,0.17531833052635193,0.31093040108680725
1717005650134382000,1.264382080078125,-0.17104226350784302,0.2926044464111328,0.29077184200286865
1717005650144367400,1.274367431640625,-0.15882496535778046,0.18081611394882202,0.251676470041275
1717005650154401000,1.284401123046875,-0.18387043476104736,-0.051312681287527084,0.19853121042251587
1717005650164356900,1.29435693359375,-0.27000242471694946,-0.20952677726745605,0.13072516024112701
1717005650174390300,1.304390380859375,-0.3500257730484009,-0.3781255781650543,0.06108652427792549
1717005650184376300,1.314376220703125,-0.394618958234787,-0.4996877610683441,0.00855211354792118
1717005650194379300,1.324379150390625,-0.4331034719944,-0.5125159621238708,-0.03237585723400116
1717005650204365300,1.334365234375,-0.46731191873550415,-0.4404338300228119,-0.06658431142568588
1717005650214398700,1.344398681640625,-0.46364670991897583,-0.34697145223617554,-0.08002334833145142
1717005650224385000,1.354385009765625,-0.41722095012664795,-0.23579397797584534,-0.07147123664617538
1717005650234387700,1.3643876953125,-0.342695415019989,-0.12339477986097336,-0.0507018156349659
1717005650244374300,1.374374267578125,-0.2583959996700287,-0.09040805697441101,-0.03787364438176155
1717005650254407700,1.38440771484375,-0.18936823308467865,-0.13927727937698364,-0.02076941914856434
1717005650264363500,1.394363525390625,-0.14355333149433136,-0.25473082065582275,0.004886921960860491
1717005650274396700,1.404396728515625,-0.12767083942890167,-0.40256020426750183,0.009773843921720982
1717005650284382700,1.4143828125,-0.1313360333442688,-0.5027421116828918,-0.013439035043120384
1717005650294385700,1.4243857421875,-0.12950342893600464,-0.5125159621238708,-0.06108652427792549
1717005650304371700,1.434371826171875,-0.11545353382825851,-0.4453207552433014,-0.13377949595451355
1717005650314404400,1.444404296875,-0.0910189226269722,-0.31642818450927734,-0.20097467303276062
1717005650324361000,1.45436083984375,-0.06841690838336945,-0.242513507604599,-0.23396138846874237
1717005650334393300,1.464393310546875,-0.08918632566928864,-0.2987131178379059,-0.2382374405860901
1717005650344380400,1.47438037109375,-0.19547687470912933,-0.6585127115249634,-0.22602014243602753
1717005650354383000,1.484383056640625,-0.17470745742321014,-1.0115928649902344,-0.1514945775270462
1717005650364369400,1.494369384765625,-0.02687807008624077,-1.415374755859375,-0.02076941914856434
1717005650374402000,1.504402099609375,0.20097467303276062,-1.9242255687713623,0.13072516024112701
1717005650384358400,1.5143583984375,0.43737950921058655,-2.495995283126831,0.2926044464111328
1717005650394388700,1.524388671875,0.6389650702476501,-3.0421090126037598,0.4715879559516907
1717005650404377900,1.5343779296875,0.8216137290000916,-3.53446626663208,0.6829473376274109
1717005650414378800,1.544378662109375,1.0042624473571777,-3.9901716709136963,0.9071348905563354
1717005650424367000,1.5543671875,1.150259256362915,-4.310265064239502,1.0965031385421753
1717005650434397700,1.564397705078125,1.2638801336288452,-4.4397687911987305,1.2119566202163696
1717005650444356000,1.574356201171875,1.387274980545044,-4.458705425262451,1.2119566202163696
1717005650454142000,1.584141845703125,1.5467108488082886,-4.401895046234131,1.0848966836929321
1717005650464375600,1.59437548828125,1.7635679244995117,-4.312708854675293,0.8674286603927612
1717005650474408200,1.604408203125,2.0384573936462402,-4.2363505363464355,0.616973876953125
1717005650484608800,1.61460888671875,2.3512203693389893,-4.186870574951172,0.35552358627319336
1717005650494388700,1.624388671875,2.6762006282806396,-4.170988082885742,0.08552113175392151
1717005650504384300,1.63438427734375,2.995683193206787,-4.1972551345825195,-0.1918116807937622
1717005650514384100,1.644384033203125,3.282789945602417,-4.241237163543701,-0.4599815309047699
1717005650524373000,1.654373046875,3.5027012825012207,-4.205807209014893,-0.7147123217582703
1717005650534403300,1.6644033203125,3.6169331073760986,-4.05858850479126,-0.9841039180755615
1717005650544362200,1.6743623046875,3.629150390625,-3.8008036613464355,-1.2651019096374512
1717005650554392300,1.684392333984375,3.561955213546753,-3.3964107036590576,-1.5442672967910767
1717005650564381700,1.694381591796875,3.43978214263916,-2.9162707328796387,-1.7886134386062622
1717005650574381800,1.7043818359375,3.251635789871216,-2.431854486465454,-2.0024163722991943
1717005650584370700,1.71437060546875,3.059213161468506,-2.048841953277588,-2.1704041957855225
1717005650594401300,1.7244013671875,2.941926956176758,-1.8154915571212769,-2.2437081336975098
1717005650604359400,1.734359375,2.889392614364624,-1.7660114765167236,-2.216219186782837
1717005650614390300,1.744390380859375,2.861903667449951,-1.8503108024597168,-2.1172590255737305
1717005650624379100,1.754379150390625,2.8600711822509766,-2.0005836486816406,-1.9853121042251587
1717005650634379300,1.764379150390625,2.8454103469848633,-2.1068742275238037,-1.8503108024597168
1717005650644368100,1.7743681640625,2.7678303718566895,-2.155132532119751,-1.7336355447769165
1717005650654398700,1.784398681640625,2.6254987716674805,-2.13314151763916,-1.6340645551681519
1717005650664357400,1.794357421875,2.4165828227996826,-2.0366246700286865,-1.5424346923828125
1717005650674387700,1.8043876953125,2.202169179916382,-1.9437731504440308,-1.4654656648635864
1717005650684376800,1.814376953125,2.0500638484954834,-1.9187277555465698,-1.4123204946517944
1717005650694377000,1.824376953125,2.010357618331909,-1.9663752317428589,-1.3616186380386353
1717005650704365600,1.834365478515625,2.065946340560913,-2.0726656913757324,-1.2950342893600464
1717005650714396200,1.844396240234375,2.177123785018921,-2.2094995975494385,-1.224173903465271
1717005650724385300,1.85438525390625,2.314568519592285,-2.3133466243743896,-1.168585181236267
1717005650734385400,1.864385498046875,2.4660630226135254,-2.3218986988067627,-1.1582005023956299
1717005650744374300,1.874374267578125,2.6309967041015625,-2.2229385375976562,-1.214400053024292
1717005650754404900,1.88440478515625,2.797762870788574,-2.015244483947754,-1.3255776166915894
1717005650764363300,1.89436328125,2.9333748817443848,-1.7434093952178955,-1.4795156717300415
1717005650774394000,1.90439404296875,3.003624439239502,-1.4648548364639282,-1.653001308441162
1717005650784382700,1.9143828125,3.017674207687378,-1.205847978591919,-1.817324161529541
1717005650794382800,1.9243828125,3.037221908569336,-0.9969320893287659,-1.976149082183838
1717005650804371700,1.934371826171875,3.09281063079834,-0.8478809595108032,-2.1447479724884033
1717005650814402600,1.944402587890625,3.1722233295440674,-0.6969972252845764,-2.3157901763916016
1717005650824361000,1.95436083984375,3.2528574466705322,-0.48319441080093384,-2.462397813796997
1717005650834391600,1.9643916015625,3.318830966949463,-0.24984388053417206,-2.56868839263916
1717005650844380400,1.97438037109375,3.3927454948425293,-0.05497787147760391,-2.623666286468506
1717005650854380300,1.98438037109375,3.495370864868164,0.05497787147760391,-2.6053402423858643
1717005650864369400,1.994369384765625,3.6102135181427,0.06414084881544113,-2.518597364425659
1717005650874399700,2.004399658203125,3.7305541038513184,-0.009773843921720982,-2.375044107437134
1717005650884358400,2.0143583984375,3.871663808822632,-0.10690141469240189,-2.1789562702178955
1717005650894389000,2.024388916015625,4.0463714599609375,-0.10384709388017654,-1.947438359260559
1717005650904377900,2.0343779296875,4.196644306182861,0.006719517521560192,-1.7342463731765747
1717005650914378200,2.044378173828125,4.24429178237915,0.18875735998153687,-1.531439185142517
1717005650924366800,2.054366943359375,4.166100978851318,0.3090978264808655,-1.2718214988708496
1717005650934397700,2.064397705078125,3.82462739944458,0.21868975460529327,-0.8283332586288452
1717005650944356000,2.074356201171875,3.489873170852661,0.04948008432984352,-0.5057964324951172
1717005650954386700,2.08438671875,3.10197377204895,-0.17470745742321014,-0.19792033731937408
1717005650964375600,2.09437548828125,2.668870210647583,-0.3396410644054413,0.06963863968849182
1717005650974406100,2.10440625,2.1905627250671387,-0.3677408695220947,0.3121521472930908
1717005650984364800,2.11436474609375,1.6988162994384766,-0.3836233615875244,0.513737678527832
1717005650994395100,2.12439501953125,1.2736539840698242,-0.4948008358478546,0.6487388610839844
1717005651004384300,2.13438427734375,0.9682214260101318,-0.6145304441452026,0.7037167549133301
1717005651014384400,2.14438427734375,0.750142514705658,-0.685390830039978,0.6878342628479004
1717005651024373000,2.154373046875,0.5797111392021179,-0.6701191663742065,0.6395758986473083
1717005651034403600,2.164403564453125,0.4447098970413208,-0.5668829679489136,0.5754350423812866
1717005651044362200,2.1743623046875,0.3335324227809906,-0.4605923891067505,0.4899139404296875
1717005651054392600,2.184392578125,0.21991148591041565,-0.323147714138031,0.384845107793808
1717005651064381700,2.194381591796875,0.08124507963657379,-0.16004669666290283,0.2993239760398865
1717005651074381600,2.204381591796875,-0.09773843735456467,-0.054367005825042725,0.25595253705978394
1717005651084370700,2.21437060546875,-0.30604347586631775,-0.014049900695681572,0.2669481039047241
1717005651094401300,2.2244013671875,-0.48869219422340393,-0.003054326167330146,0.3188716471195221
1717005651104359700,2.234359619140625,-0.6126978397369385,0.06658431142568588,0.34697145223617554
1717005651114390300,2.244390380859375,-0.7171558141708374,0.1661553531885147,0.2987131178379059
1717005651124379100,2.254379150390625,-0.79840087890625,0.1973094791173935,0.20525072515010834
1717005651134379500,2.264379638671875,-0.9010262489318848,0.24007004499435425,0.10873401165008545
1717005651144367400,2.274367431640625,-0.9853256344795227,0.17287486791610718,0.0708603709936142
1717005651154400800,2.28440087890625,-1.0085384845733643,0.04337143152952194,0.14844025671482086
1717005651164356900,2.29435693359375,-1.0445796251296997,-0.12767083942890167,0.3170390725135803
1717005651174390000,2.30439013671875,-1.1160508394241333,-0.32620203495025635,0.5314527750015259
1717005651184376300,2.314376220703125,-1.207069754600525,-0.5161811113357544,0.7299839854240417
1717005651194378500,2.32437841796875,-1.3060299158096313,-0.6780604124069214,0.902247965335846
1717005651204365300,2.334365234375,-1.3933836221694946,-0.8087855577468872,1.0629055500030518
1717005651214398000,2.34439794921875,-1.4660766124725342,-0.901637077331543,1.207069754600525
1717005651224385000,2.354385009765625,-1.5351043939590454,-0.9425650835037231,1.3231340646743774
1717005651234387200,2.36438720703125,-1.606575608253479,-0.9462302923202515,1.3903292417526245
1717005651244374300,2.374374267578125,-1.6676621437072754,-0.9486737251281738,1.406822681427002
1717005651254407000,2.384406982421875,-1.711033582687378,-0.9376781582832336,1.3952162265777588
1717005651264363300,2.39436328125,-1.7482963800430298,-0.9492846131324768,1.3732250928878784
1717005651274396200,2.404396240234375,-1.7757853269577026,-0.979827880859375,1.3561208248138428
1717005651284382700,2.4143828125,-1.777006983757019,-1.0005972385406494,1.3469579219818115
1717005651294385400,2.424385498046875,-1.750128984451294,-1.027475357055664,1.3439035415649414
1717005651304371700,2.434371826171875,-1.6969836950302124,-1.064738154411316,1.3506230115890503
1717005651314404600,2.444404541015625,-1.6322319507598877,-1.111163854598999,1.379333734512329
1717005651324361000,2.45436083984375,-1.5613715648651123,-1.1661417484283447,1.4379768371582031
1717005651334393600,2.4643935546875,-1.4978415966033936,-1.253495454788208,1.5015068054199219
1717005651344380400,2.47438037109375,-1.443474531173706,-1.3713924884796143,1.5253305435180664
1717005651354382600,2.484382568359375,-1.4001030921936035,-1.510058879852295,1.4917329549789429
1717005651364369700,2.49436962890625,-1.3420709371566772,-1.6267341375350952,1.4196507930755615
1717005651374402000,2.504402099609375,-1.244943380355835,-1.69148588180542,1.3365731239318848
1717005651384358400,2.5143583984375,-1.1325441598892212,-1.703092336654663,1.2583824396133423
1717005651394391000,2.52439111328125,-1.0793988704681396,-1.6597208976745605,1.189354658126831
1717005651404377900,2.5343779296875,-1.1447614431381226,-1.5399912595748901,1.1007791757583618
1717005651414380000,2.544380126953125,-1.3628404140472412,-1.3005321025848389,0.978606104850769
1717005651424367000,2.5543671875,-1.7299703359603882,-0.9547823667526245,0.8460483551025391
1717005651434399700,2.564399658203125,-2.1905627250671387,-0.5607742667198181,0.759305477142334
1717005651444356000,2.574356201171875,-2.6120598316192627,-0.24129177629947662,0.769690215587616
1717005651454387200,2.58438720703125,-2.8484647274017334,0.009162978269159794,0.9340129494667053
1717005651464375600,2.59437548828125,-2.769052267074585,0.1875356286764145,1.2357803583145142
1717005651474406100,2.60440625,-2.342057466506958,0.17776179313659668,1.4911220073699951
1717005651484364500,2.614364501953125,-1.6682729721069336,-0.03787364438176155,1.5289957523345947
1717005651494398000,2.62439794921875,-0.9462302923202515,-0.43249258399009705,1.2651019096374512
1717005651504384000,2.634384033203125,-0.3390302062034607,-0.8032878041267395,0.7153232097625732
1717005651514386200,2.64438623046875,0.07269296050071716,-0.9841039180755615,0.004886921960860491
1717005651524373000,2.654373046875,0.3341432809829712,-0.8704829812049866,-1.1074986457824707
1717005651534403600,2.664403564453125,0.394008070230484,-0.5907067060470581,-1.7324138879776
1717005651544362200,2.6743623046875,0.47219884395599365,-0.22052235901355743,-2.1142046451568604
1717005651554392600,2.684392578125,0.6004805564880371,0.18325957655906677,-2.222327709197998
1717005651564381700,2.694381591796875,0.7947356700897217,0.5412266254425049,-2.147191286087036
1717005651574381300,2.70438134765625,1.0293079614639282,0.7678576111793518,-2.021353006362915
1717005651584370700,2.71437060546875,1.2577714920043945,0.8613200187683105,-1.919338583946228
1717005651594401000,2.724401123046875,1.455691933631897,0.8851437568664551,-1.8417587280273438
1717005651604360000,2.73435986328125,1.6285667419433594,0.8857545852661133,-1.7727309465408325
1717005651614392300,2.744392333984375,1.7806721925735474,0.8649851679801941,-1.703092336654663
1717005651624379100,2.754379150390625,1.9242255687713623,0.8411614298820496,-1.605353832244873
1717005651634381300,2.76438134765625,2.049452781677246,0.827111542224884,-1.4581353664398193
1717005651644368100,2.7743681640625,2.1563544273376465,0.8307767510414124,-1.2479976415634155
1717005651654401000,2.784401123046875,2.2375993728637695,0.8216137290000916,-0.9914342761039734
1717005651664357400,2.794357421875,2.298074960708618,0.7507534027099609,-0.7049384713172913
1717005651674390000,2.80439013671875,2.330451011657715,0.5778785347938538,-0.4202753007411957
1717005651684376800,2.814376953125,2.3237314224243164,0.34147366881370544,-0.16859880089759827
1717005651694379300,2.824379150390625,2.3066272735595703,0.06658431142568588,0.04886921867728233
1717005651704365600,2.834365478515625,2.266921043395996,-0.2125810980796814,0.19364428520202637
1717005651714398500,2.8443984375,2.1850650310516357,-0.45692721009254456,0.2583959996700287
1717005651724385300,2.85438525390625,2.083050489425659,-0.6493497490882874,0.2632829248905182
1717005651734387500,2.864387451171875,1.9901989698410034,-0.7574729323387146,0.2528982162475586
1717005651744374300,2.874374267578125,1.927890658378601,-0.7635815739631653,0.23945917189121246
1717005651754407000,2.884406982421875,1.8930714130401611,-0.6646214127540588,0.20830504596233368
1717005651764363300,2.89436328125,1.8869627714157104,-0.49724429845809937,0.14233160018920898
1717005651774396400,2.904396484375,1.9028452634811401,-0.304210901260376,0.039706241339445114
1717005651784382700,2.9143828125,1.9230037927627563,-0.10445795953273773,-0.0757472887635231
1717005651794385200,2.92438525390625,1.9156733751296997,0.0861319974064827,-0.18448130786418915
1717005651804371700,2.934371826171875,1.8411478996276855,0.26022860407829285,-0.29504790902137756
1717005651814402600,2.944402587890625,1.7061465978622437,0.41661009192466736,-0.3878994286060333
1717005651824361000,2.95436083984375,1.5497651100158691,0.5412266254425049,-0.4343251883983612
1717005651834391600,2.9643916015625,1.3866641521453857,0.6053674817085266,-0.44226643443107605
1717005651844380400,2.97438037109375,1.2333369255065918,0.608421802520752,-0.4355469346046448
1717005651854382600,2.984382568359375,1.1081095933914185,0.5583308339118958,-0.41111230850219727
1717005651864369400,2.994369384765625,1.0097602605819702,0.4715879559516907,-0.37201693654060364
1717005651874402300,3.00440234375,0.9370672702789307,0.3604104816913605,-0.32131510972976685
1717005651884358400,3.0143583984375,0.8637634515762329,0.2272418737411499,-0.2773328125476837
1717005651894391300,3.024391357421875,0.7678576111793518,0.10201449692249298,-0.24007004499435425
1717005651904377900,3.0343779296875,0.6524040699005127,-0.0006108652451075613,-0.2217440903186798
1717005651914380300,3.04438037109375,0.5491678714752197,-0.07452555745840073,-0.2076941877603531
1717005651924366800,3.054366943359375,0.48747047781944275,-0.10567969083786011,-0.17348572611808777
1717005651934399700,3.064399658203125,0.45631635189056396,-0.07696902006864548,-0.12278391420841217
1717005651944356000,3.074356201171875,0.4300491213798523,0.001832595793530345,-0.06841690838336945
1717005651954386700,3.08438671875,0.3927863538265228,0.10690141469240189,-0.05314527451992035
1717005651964375600,3.09437548828125,0.342695415019989,0.23090706765651703,-0.09346238523721695
1717005651974406100,3.10440625,0.25961771607398987,0.3500257730484009,-0.17287486791610718
1717005651984364800,3.11436474609375,0.1319468915462494,0.43127086758613586,-0.2382374405860901
1717005651994395000,3.124394775390625,-0.02076941914856434,0.4740314185619354,-0.2480112910270691
1717005652004384300,3.13438427734375,-0.1765400618314743,0.4862487316131592,-0.20463985204696655
1717005652014384000,3.144384033203125,-0.34025195240974426,0.44593164324760437,-0.12339477986097336
1717005652024373000,3.154373046875,-0.5241223573684692,0.33597588539123535,-0.015271631069481373
1717005652034403800,3.16440380859375,-0.7183775305747986,0.1722639948129654,0.11850785464048386
1717005652044362200,3.1743623046875,-0.9095783233642578,-0.02382374368607998,0.2791654169559479
1717005652054395000,3.184394775390625,-1.0653489828109741,-0.24129177629947662,0.46670106053352356
1717005652064381700,3.194381591796875,-1.1484266519546509,-0.5088507533073425,0.6542366743087769
1717005652074384000,3.2043837890625,-1.1398745775222778,-0.8252789378166199,0.8344419002532959
1717005652084401200,3.214401123046875,-1.0335839986801147,-1.1716395616531372,1.0005972385406494
1717005652094403300,3.2244033203125,-0.8484918475151062,-1.5460999011993408,1.1374311447143555
1717005652104359700,3.234359619140625,-0.627358615398407,-1.9113973379135132,1.244943380355835
1717005652114392600,3.244392578125,-0.3396410644054413,-2.3188445568084717,1.3634512424468994
1717005652124379100,3.254379150390625,-0.21563543379306793,-2.4685065746307373,1.3994922637939453
1717005652134381300,3.26438134765625,-0.1569923609495163,-2.523484230041504,1.3939944505691528
1717005652144367400,3.274367431640625,-0.16249015927314758,-2.4770586490631104,1.3585642576217651
1717005652154398200,3.284398193359375,-0.22907446324825287,-2.342057466506958,1.310916781425476
1717005652164357000,3.294357177734375,-0.3738495409488678,-2.1734585762023926,1.2571606636047363
1717005652174387200,3.30438720703125,-0.6035348773002625,-2.0079140663146973,1.2150110006332397
1717005652184376300,3.314376220703125,-0.8979719281196594,-1.8509217500686646,1.1948524713516235
1717005652194376400,3.32437646484375,-1.228450059890747,-1.6939293146133423,1.1869112253189087
1717005652204365300,3.334365234375,-1.5570955276489258,-1.531439185142517,1.1740829944610596
1717005652214396000,3.34439599609375,-1.8496999740600586,-1.3603968620300293,1.1453723907470703
1717005652224385000,3.354385009765625,-2.0928242206573486,-1.178359031677246,1.0995573997497559
1717005652234387200,3.36438720703125,-2.27852725982666,-0.99876469373703,1.0482447147369385
1717005652244374300,3.374374267578125,-2.412306785583496,-0.8429940342903137,0.998153805732727
1717005652254407000,3.384406982421875,-2.5088236331939697,-0.7250970602035522,0.9547823667526245
1717005652264363300,3.39436328125,-2.5699100494384766,-0.6279694437980652,0.9224064946174622
1717005652274396200,3.404396240234375,-2.604729413986206,-0.5540547966957092,0.8955284357070923
1717005652284383000,3.414383056640625,-2.615114212036133,-0.5057964324951172,0.8753699064254761
1717005652294385200,3.42438525390625,-2.602285861968994,-0.4697553813457489,0.8600982427597046
1717005652304371700,3.434371826171875,-2.559525489807129,-0.4288274049758911,0.8442157506942749
1717005652314404600,3.444404541015625,-2.4856107234954834,-0.3927863538265228,0.8216137290000916
1717005652324361000,3.45436083984375,-2.3799309730529785,-0.35674530267715454,0.7898487448692322
1717005652334393600,3.4643935546875,-2.2485949993133545,-0.32070425152778625,0.7538077235221863
1717005652344380400,3.47438037109375,-2.096489429473877,-0.2785545587539673,0.7147123217582703
1717005652354382600,3.484382568359375,-1.935831904411316,-0.23396138846874237,0.6762278079986572
1717005652364369400,3.494369384765625,-1.785559058189392,-0.2028072625398636,0.6310238242149353
1717005652374402300,3.50440234375,-1.6536122560501099,-0.19486601650714874,0.5766568183898926
1717005652384358400,3.5143583984375,-1.539380431175232,-0.19364428520202637,0.5167919993400574
1717005652394391300,3.524391357421875,-1.4385876655578613,-0.19425514340400696,0.455705463886261
1717005652404377900,3.5343779296875,-1.3506230115890503,-0.2064724564552307,0.39584067463874817
1717005652414380300,3.54438037109375,-1.2614367008209229,-0.2021963894367218,0.3439171314239502
1717005652424367000,3.5543671875,-1.1746938228607178,-0.17531833052635193,0.294437050819397
1717005652434399700,3.564399658203125,-1.10139000415802,-0.12278391420841217,0.24984388053417206
1717005652444356000,3.574356201171875,-1.035416603088379,-0.03420845419168472,0.20463985204696655
1717005652454388700,3.584388671875,-0.979827880859375,0.1007927656173706,0.14844025671482086
1717005652464375600,3.59437548828125,-0.9334021210670471,0.2767219543457031,0.08552113175392151
1717005652474408400,3.604408447265625,-0.9065240025520325,0.475253164768219,0.016493361443281174
1717005652484364500,3.614364501953125,-0.8827002644538879,0.6597344875335693,-0.06780604273080826
1717005652494395100,3.62439501953125,-0.8020660877227783,0.79840087890625,-0.16982053220272064
1717005652504384300,3.63438427734375,-0.636521577835083,0.9059131741523743,-0.2773328125476837
1717005652514384100,3.644384033203125,-0.3805690407752991,0.9627236127853394,-0.38728857040405273
1717005652524373000,3.654373046875,-0.06902777403593063,0.9639453291893005,-0.5180137157440186
1717005652534403600,3.664403564453125,0.252287358045578,0.921795666217804,-0.6682865619659424
1717005652544362200,3.6743623046875,0.5424483418464661,0.8949176073074341,-0.8185594081878662
1717005652554392600,3.684392578125,0.7751879692077637,0.9193521738052368,-0.9199630618095398
1717005652564381700,3.694381591796875,0.9437867999076843,0.9841039180755615,-0.9230173826217651
1717005652574381600,3.704381591796875,1.0458012819290161,1.0775662660598755,-0.8124507665634155
1717005652584370700,3.71437060546875,1.076344609260559,1.1649199724197388,-0.5992587804794312
1717005652594403300,3.7244033203125,1.0769554376602173,1.179580807685852,-0.3445279896259308
1717005652604359700,3.734359619140625,1.0855075120925903,1.0903944969177246,-0.11362093687057495
1717005652614392300,3.744392333984375,1.1398745775222778,0.9205739498138428,0.08674286305904388
1717005652624379100,3.754379150390625,1.2260065078735352,0.6921103000640869,0.23518311977386475
1717005652634381600,3.764381591796875,1.3048081398010254,0.39645153284072876,0.3139847218990326
1717005652644368100,3.7743681640625,1.3555099964141846,0.07452555745840073,0.3384193480014801
1717005652654401000,3.784401123046875,1.3744467496871948,-0.20036379992961884,0.33047810196876526
1717005652664357400,3.794357421875,1.368949055671692,-0.4105014503002167,0.2987131178379059
1717005652674314200,3.804314208984375,1.351233959197998,-0.5210680365562439,0.2577851414680481
1717005652684301000,3.814301025390625,1.3420709371566772,-0.503963828086853,0.21868975460529327
1717005652694303200,3.82430322265625,1.3683381080627441,-0.3927863538265228,0.1716531366109848
1717005652704290000,3.8342900390625,1.5076154470443726,-0.1514945775270462,0.09224065393209457
1717005652714323200,3.8443232421875,1.6603317260742188,0.005497787147760391,0.05314527451992035
1717005652724309500,3.8543095703125,1.8417587280273438,0.13561208546161652,0.018325956538319588
1717005652734311700,3.864311767578125,2.009746551513672,0.22663100063800812,-0.025045474991202354
1717005652744298500,3.874298583984375,2.141693592071533,0.29016098380088806,-0.07208210229873657
1717005652754331100,3.8843310546875,2.2241604328155518,0.33169981837272644,-0.10812314599752426
1717005652764287500,3.89428759765625,2.2400429248809814,0.35246923565864563,-0.12889257073402405
1717005652774320400,3.9043203125,2.1954495906829834,0.3701843321323395,-0.13744467496871948
1717005652784307200,3.91430712890625,2.104430675506592,0.4153883755207062,-0.13316862285137177
1717005652794309400,3.924309326171875,1.9822577238082886,0.4715879559516907,-0.1215621829032898
1717005652804296200,3.934296142578125,1.833817481994629,0.5100724697113037,-0.09346238523721695
1717005652814329000,3.9443291015625,1.6829338073730469,0.5100724697113037,-0.030543262138962746
1717005652824285200,3.95428515625,1.5485434532165527,0.4764748811721802,0.05742133408784866
1717005652834317800,3.96431787109375,1.441641926765442,0.4355469346046448,0.13316862285137177
1717005652844304600,3.9743046875,1.3426817655563354,0.4141666293144226,0.1508837193250656
1717005652854306800,3.984306884765625,1.2424999475479126,0.42149701714515686,0.10201449692249298
1717005652864293600,3.994293701171875,1.151481032371521,0.4447098970413208,0.01160643994808197
1717005652874326500,4.004326416015625,1.0696250200271606,0.47830748558044434,-0.09162978827953339
1717005652884283000,4.014282958984375,0.9896016716957092,0.5210680365562439,-0.19547687470912933
1717005652894315800,4.024315673828125,0.9010262489318848,0.5919284224510193,-0.2919935882091522
1717005652904302300,4.03430224609375,0.8100073337554932,0.6902777552604675,-0.3799581825733185
1717005652914304800,4.0443046875,0.7330383062362671,0.807563841342926,-0.45265114307403564
1717005652924291300,4.054291259765625,0.6774495840072632,0.931569516658783,-0.503963828086853
1717005652934323700,4.06432373046875,0.6298020482063293,1.0726794004440308,-0.5351179838180542
1717005652944280300,4.0742802734375,0.5870414972305298,1.2082914113998413,-0.5754350423812866
1717005652954313000,4.08431298828125,0.5558874011039734,1.3127493858337402,-0.6493497490882874
1717005652964299800,4.0942998046875,0.5351179838180542,1.3817771673202515,-0.7458664774894714
1717005652974332400,4.10433251953125,0.513737678527832,1.4178181886672974,-0.8411614298820496
1717005652984289000,4.1142890625,0.49235737323760986,1.4104878902435303,-0.9126327037811279
1717005652994321400,4.1243212890625,0.46364670991897583,1.3634512424468994,-0.9462302923202515
1717005653004308500,4.13430859375,0.4202753007411957,1.2748757600784302,-0.940121591091156
1717005653014310400,4.144310302734375,0.3701843321323395,1.1704177856445312,-0.9040805697441101
1717005653024297500,4.15429736328125,0.3225368559360504,1.0659598112106323,-0.8460483551025391
1717005653034329900,4.164329833984375,0.2974913716316223,0.9749409556388855,-0.7745771408081055
1717005653044286500,4.174286376953125,0.26511552929878235,0.8759807348251343,-0.7079927921295166
1717005653054319000,4.184319091796875,0.20036379992961884,0.7422012686729431,-0.6688974499702454
1717005653064306000,4.194305908203125,0.1313360333442688,0.6120869517326355,-0.6615670323371887
1717005653074308000,4.20430810546875,0.09834930300712585,0.49846604466438293,-0.656069278717041
1717005653084295000,4.214294921875,0.12278391420841217,0.413555771112442,-0.6285803318023682
1717005653094327800,4.224327880859375,0.19425514340400696,0.35735616087913513,-0.5619960427284241
1717005653104284200,4.2342841796875,0.26450464129447937,0.32070425152778625,-0.46242499351501465
1717005653114316800,4.24431689453125,0.2834414839744568,0.28527405858039856,-0.3634648323059082
1717005653124303600,4.2543037109375,0.24434609711170197,0.2730567753314972,-0.2822197377681732
1717005653134303500,4.264303466796875,0.15577064454555511,0.30054569244384766,-0.22663100063800812
1717005653144291800,4.274291748046875,-0.0024434609804302454,0.34208452701568604,-0.18936823308467865
1717005653154322400,4.284322509765625,-0.2480112910270691,0.3885102868080139,-0.17959438264369965
1717005653164281300,4.29428125,-0.5375614166259766,0.4398229718208313,-0.1765400618314743
1717005653174312000,4.30431201171875,-0.8045095205307007,0.4502076804637909,-0.1661553531885147
1717005653184300800,4.31430078125,-1.0183123350143433,0.3952298164367676,-0.14233160018920898
1717005653194302700,4.324302734375,-1.1673635244369507,0.294437050819397,-0.1014036312699318
1717005653204289500,4.33428955078125,-1.238223910331726,0.1258382350206375,-0.04581489413976669
1717005653214322400,4.344322509765625,-1.2150110006332397,-0.13316862285137177,0.027488935738801956
1717005653224309200,4.354309326171875,-1.111163854598999,-0.4746423065662384,0.08674286305904388
1717005653234311400,4.3643115234375,-0.9621127843856812,-0.8637634515762329,0.12400564551353455
1717005653244298500,4.374298583984375,-0.8136724829673767,-1.2315043210983276,0.16982053220272064
1717005653254331100,4.3843310546875,-0.7134906053543091,-1.4960089921951294,0.23396138846874237
1717005653264287500,4.39428759765625,-0.6902777552604675,-1.6633861064910889,0.29565876722335815
1717005653274320400,4.4043203125,-0.7348709106445312,-1.777006983757019,0.35185837745666504
1717005653284307200,4.41430712890625,-0.8142833709716797,-1.8393152952194214,0.413555771112442
1717005653294309400,4.424309326171875,-0.96883225440979,-1.8270978927612305,0.5265658497810364
1717005653304296200,4.434296142578125,-1.0775662660598755,-1.8264870643615723,0.6304129362106323
1717005653314328800,4.444328857421875,-1.1820242404937744,-1.8839083909988403,0.7727445363998413
1717005653324285200,4.45428515625,-1.2809844017028809,-1.9425514936447144,0.9511171579360962
1717005653334317600,4.464317626953125,-1.3964380025863647,-1.9816468954086304,1.1447614431381226
1717005653344304600,4.4743046875,-1.5070046186447144,-2.004859685897827,1.3365731239318848
1717005653354306800,4.484306884765625,-1.6047430038452148,-2.0005836486816406,1.522887110710144
1717005653364293600,4.494293701171875,-1.6853772401809692,-1.9718730449676514,1.7263051271438599
1717005653374326300,4.504326171875,-1.7043139934539795,-1.9792033433914185,1.9449949264526367
1717005653384282600,4.51428271484375,-1.6493362188339233,-2.0567831993103027,2.1539108753204346
1717005653394313200,4.524313232421875,-1.5241087675094604,-2.1508564949035645,2.355496406555176
1717005653404302300,4.53430224609375,-1.3292428255081177,-2.2070560455322266,2.5644123554229736
1717005653414302200,4.54430224609375,-1.1148290634155273,-2.2180516719818115,2.7568347454071045
1717005653424291300,4.554291259765625,-0.9108000993728638,-2.2595906257629395,2.888781785964966
1717005653434321700,4.56432177734375,-0.7336491346359253,-2.3127357959747314,2.9382617473602295
1717005653444280300,4.5742802734375,-0.5900958180427551,-2.322509765625,2.9022207260131836
1717005653454311000,4.584310791015625,-0.49724429845809937,-2.2540926933288574,2.786156415939331
1717005653464299800,4.5942998046875,-0.46303585171699524,-2.1038198471069336,2.6010642051696777
1717005653474332400,4.60433251953125,-0.4398229718208313,-1.8967366218566895,2.356107234954834
1717005653484288800,4.614288818359375,-0.40622538328170776,-1.6725490093231201,2.0592267513275146
1717005653494319000,4.624319091796875,-0.342695415019989,-1.4520267248153687,1.7635679244995117
1717005653504308500,4.63430859375,-0.22907446324825287,-1.273043155670166,1.490511178970337
1717005653514308400,4.644308349609375,-0.08979719132184982,-1.1099421977996826,1.2180652618408203
1717005653524297500,4.65429736328125,0.04581489413976669,-0.9511171579360962,0.9431759119033813
1717005653534329900,4.664329833984375,0.16249015927314758,-0.7837401032447815,0.6627888083457947
1717005653544286500,4.674286376953125,0.24984388053417206,-0.6218608021736145,0.3830125033855438
1717005653554318800,4.68431884765625,0.2883284091949463,-0.4856378734111786,0.11423180252313614
1717005653564306000,4.694305908203125,0.2834414839744568,-0.36102136969566345,-0.12339477986097336
1717005653574308000,4.70430810546875,0.26633724570274353,-0.2272418737411499,-0.3078760802745819
1717005653584295000,4.714294921875,0.2535090744495392,-0.07757988572120667,-0.43676865100860596
1717005653594327600,4.72432763671875,0.24190263450145721,0.09468411654233932,-0.50335294008255
1717005653604284200,4.7342841796875,0.23640485107898712,0.28955012559890747,-0.513737678527832
1717005653614316800,4.74431689453125,0.24678955972194672,0.484416127204895,-0.4960225820541382
1717005653624303600,4.7543037109375,0.2877175211906433,0.6585127115249634,-0.4758640229701996
1717005653634303200,4.76430322265625,0.36713001132011414,0.7825183868408203,-0.46242499351501465
1717005653644292400,4.774292236328125,0.4917465150356293,0.8387179970741272,-0.45265114307403564
1717005653654323200,4.7843232421875,0.6597344875335693,0.8491026759147644,-0.4404338300228119
1717005653664281600,4.794281494140625,0.8436049222946167,0.8411614298820496,-0.42577308416366577
1717005653674312200,4.804312255859375,1.0213667154312134,0.8216137290000916,-0.40622538328170776
1717005653684301000,4.814301025390625,1.1746938228607178,0.7837401032447815,-0.423329621553421
1717005653694303500,4.824303466796875,1.2883148193359375,0.7586946487426758,-0.5064072608947754
1717005653704290000,4.8342900390625,1.3548991680145264,0.7941248416900635,-0.6603453159332275
1717005653714323000,4.844322998046875,1.3897184133529663,0.8869763612747192,-0.8588765263557434
1717005653724309500,4.8543095703125,1.4013248682022095,1.0256427526474,-1.0555751323699951
1717005653734312000,4.86431201171875,1.3939944505691528,1.169806957244873,-1.236391305923462
1717005653744298500,4.874298583984375,1.3811663389205933,1.3078625202178955,-1.4007140398025513
1717005653754331400,4.884331298828125,1.3854423761367798,1.4550809860229492,-1.5192219018936157
1717005653764287500,4.89428759765625,1.4031574726104736,1.6090190410614014,-1.5436564683914185
1717005653774320000,4.904320068359375,1.4233160018920898,1.7373007535934448,-1.4587461948394775
1717005653784307200,4.91430712890625,1.4324790239334106,1.8167132139205933,-1.2803735733032227
1717005653794309400,4.924309326171875,1.4202617406845093,1.86191725730896,-1.0409144163131714
1717005653804296200,4.934296142578125,1.3732250928878784,1.871691107749939,-0.7611380815505981
1717005653814328600,4.94432861328125,1.2944234609603882,1.8283196687698364,-0.46731191873550415
1717005653824285200,4.95428515625,1.1606439352035522,1.7122552394866943,-0.19303341209888458
1717005653834317600,4.964317626953125,0.9871582388877869,1.540602207183838,0.02871066704392433
1717005653844304600,4.9743046875,0.8124507665634155,1.3237450122833252,0.17898350954055786
1717005653854306600,4.984306640625,0.6572909951210022,1.053742527961731,0.2535090744495392
1717005653864293600,4.994293701171875,0.5503895878791809,0.7654141783714294,0.2742784917354584
1717005653874326300,5.004326171875,0.5002986192703247,0.5186246037483215,0.26145032048225403
1717005653884282600,5.01428271484375,0.49785518646240234,0.25106561183929443,0.17531833052635193
1717005653894315500,5.0243154296875,0.504574716091156,0.1716531366109848,0.07208210229873657
1717005653904302300,5.03430224609375,0.49846604466438293,0.20952677726745605,-0.06414084881544113
1717005653914304800,5.0443046875,0.46792277693748474,0.33536502718925476,-0.23151792585849762
1717005653924291300,5.054291259765625,0.3933972120285034,0.5125159621238708,-0.423329621553421
1717005653934323700,5.06432373046875,0.2877175211906433,0.7409795522689819,-0.6126978397369385
1717005653944280300,5.0742802734375,0.18020524084568024,1.009149432182312,-0.7745771408081055
1717005653954312700,5.084312744140625,0.10751228034496307,1.2455542087554932,-0.8784242272377014
1717005653964299800,5.0942998046875,0.08796459436416626,1.4312572479248047,-0.8998045325279236
1717005653973945600,5.103945556640625,0.12034045159816742,1.5668693780899048,-0.836885392665863
1717005653984289000,5.1142890625,0.18081611394882202,1.6206254959106445,-0.7128797173500061
1717005653994321700,5.12432177734375,0.23884831368923187,1.567480206489563,-0.5522221922874451
1717005654004308500,5.13430859375,0.2675589919090271,1.4110987186431885,-0.36529740691185
1717005654014310700,5.144310546875,0.26450464129447937,1.2015719413757324,-0.16982053220272064
1717005654024297500,5.15429736328125,0.23518311977386475,0.9676105380058289,-0.01466076634824276
1717005654034329900,5.164329833984375,0.17959438264369965,0.7373143434524536,0.05253441259264946
1717005654044286500,5.174286376953125,0.10323622822761536,0.5369505286216736,0.027488935738801956
1717005654054319000,5.184319091796875,0.033597588539123535,0.3677408695220947,-0.06352998316287994
1717005654064306000,5.194305908203125,-0.021991148591041565,0.21807889640331268,-0.17959438264369965
1717005654074307800,5.204307861328125,-0.060475658625364304,0.1160643994808197,-0.27061331272125244
1717005654084325600,5.21432568359375,-0.07391469180583954,0.06108652427792549,-0.304210901260376
1717005654094327800,5.224327880859375,-0.07819075137376785,0.02932153269648552,-0.2968805134296417
1717005654104284200,5.2342841796875,-0.09773843735456467,-0.00427605677396059,-0.26450464129447937
1717005654114316800,5.24431689453125,-0.14844025671482086,-0.009773843921720982,-0.21868975460529327
1717005654124303600,5.2543037109375,-0.23396138846874237,0.012828170321881771,-0.1875356286764145
1717005654134305800,5.264305908203125,-0.3384193480014801,0.03420845419168472,-0.1875356286764145
1717005654144291800,5.274291748046875,-0.43127086758613586,0.0555887371301651,-0.1973094791173935
1717005654154324700,5.28432470703125,-0.4856378734111786,0.08368854224681854,-0.1918116807937622
1717005654164281300,5.29428125,-0.48747047781944275,0.07330382615327835,-0.16493362188339233
1717005654174314000,5.30431396484375,-0.4331034719944,-0.01466076634824276,-0.11789698898792267
1717005654184300800,5.31430078125,-0.3494149148464203,-0.1918116807937622,-0.05864306539297104
1717005654194303000,5.324302978515625,-0.26633724570274353,-0.4190535545349121,0.001832595793530345
1717005654204289500,5.33428955078125,-0.2125810980796814,-0.6524040699005127,0.060475658625364304
1717005654214322200,5.344322265625,-0.19303341209888458,-0.8784242272377014,0.1111774742603302
1717005654224309200,5.354309326171875,-0.20097467303276062,-1.0806206464767456,0.14355333149433136
1717005654234311200,5.364311279296875,-0.2370157092809677,-1.2357803583145142,0.15454891324043274
1717005654244298500,5.374298583984375,-0.2926044464111328,-1.32863187789917,0.1459967941045761
1717005654254331100,5.3843310546875,-0.3494149148464203,-1.3750576972961426,0.12095131725072861
1717005654264287500,5.39428759765625,-0.39645153284072876,-1.3738359212875366,0.08307767659425735
1717005654274320100,5.404320068359375,-0.42699480056762695,-1.3158037662506104,0.04153883829712868
1717005654284307200,5.41430712890625,-0.4502076804637909,-1.2370021343231201,0.0024434609804302454
1717005654294309400,5.424309326171875,-0.48685958981513977,-1.186300277709961,-0.02687807008624077
1717005654304296200,5.434296142578125,-0.5302310585975647,-1.168585181236267,-0.03176499158143997
1717005654314328800,5.444328857421875,-0.5644394755363464,-1.1539244651794434,-0.010995574295520782
1717005654324285200,5.45428515625,-0.5803219676017761,-1.0855075120925903,0.04337143152952194
1717005654334317800,5.46431787109375,-0.5754350423812866,-0.9743300676345825,0.1319468915462494
1717005654344304600,5.4743046875,-0.5619960427284241,-0.8570439219474792,0.24984388053417206
1717005654354306800,5.484306884765625,-0.5668829679489136,-0.7574729323387146,0.3995058834552765
1717005654364293600,5.494293701171875,-0.6114761233329773,-0.6695083379745483,0.5754350423812866
1717005654374324200,5.50432421875,-0.6933320760726929,-0.607200026512146,0.7568620443344116
1717005654384282600,5.51428271484375,-0.8240572214126587,-0.5931501388549805,0.9162978529930115
1717005654394313200,5.524313232421875,-1.0030407905578613,-0.6352998614311218,1.045190453529358
1717005654404302300,5.53430224609375,-1.19912850856781,-0.7226535677909851,1.1527026891708374
1717005654414304500,5.544304443359375,-1.3720033168792725,-0.8515461683273315,1.2577714920043945
1717005654424291300,5.554291259765625,-1.4996742010116577,-1.0195341110229492,1.3658946752548218
1717005654434324000,5.564323974609375,-1.585806131362915,-1.2113457918167114,1.4801265001296997
1717005654444280300,5.5742802734375,-1.6316211223602295,-1.4062118530273438,1.5888605117797852
1717005654454313000,5.58431298828125,-1.623068928718567,-1.6029103994369507,1.6694947481155396
1717005654464299800,5.5942998046875,-1.5625933408737183,-1.7837265729904175,1.709811806678772
1717005654474332400,5.60433251953125,-1.4208725690841675,-1.9700404405593872,1.6927075386047363
1717005654484288800,5.614288818359375,-1.3127493858337402,-2.0250182151794434,1.6255123615264893
1717005654494321400,5.6243212890625,-1.2027937173843384,-2.048841953277588,1.519832730293274
1717005654504308500,5.63430859375,-1.103833556175232,-2.0280725955963135,1.3915510177612305
1717005654514310400,5.644310302734375,-1.027475357055664,-1.976149082183838,1.2467759847640991
1717005654524297500,5.65429736328125,-0.9865473508834839,-1.8851301670074463,1.103833556175232
1717005654534330000,5.664330078125,-0.9761626720428467,-1.7464637756347656,0.9834930300712585
1717005654544286500,5.674286376953125,-1.009149432182312,-1.5668693780899048,0.8778133392333984
1717005654554319000,5.684319091796875,-1.0965031385421753,-1.3573426008224487,0.7757988572120667
1717005654564306000,5.694305908203125,-1.2571606636047363,-1.1282681226730347,0.675006091594696
1717005654574308000,5.70430810546875,-1.4960089921951294,-0.9138544201850891,0.588263213634491
1717005654584295000,5.714294921875,-1.7745635509490967,-0.7244861721992493,0.5241223573684692
1717005654594327800,5.724327880859375,-2.0451767444610596,-0.5558874011039734,0.4801400899887085
1717005654604284200,5.7342841796875,-2.286468505859375,-0.41172316670417786,0.44715335965156555
1717005654614316800,5.74431689453125,-2.459343433380127,-0.29504790902137756,0.42577308416366577
1717005654624303600,5.7543037109375,-2.5473079681396484,-0.19486601650714874,0.42699480056762695
1717005654634305800,5.764305908203125,-2.557692766189575,-0.1111774742603302,0.455705463886261
1717005654644292400,5.774292236328125,-2.510045289993286,-0.05497787147760391,0.5119050741195679
1717005654654325200,5.7843251953125,-2.422691583633423,-0.02076941914856434,0.5791002511978149
1717005654664281600,5.794281494140625,-2.309070587158203,-0.00733038317412138,0.6432411074638367
1717005654674314500,5.804314453125,-2.177123785018921,0,0.6939429044723511
1717005654684301000,5.814301025390625,-2.02929425239563,0.004886921960860491,0.7318165898323059
1717005654694301200,5.82430126953125,-1.8545868396759033,-0.010995574295520782,0.7641924023628235
1717005654704290000,5.8342900390625,-1.6633861064910889,-0.04886921867728233,0.7855727076530457
1717005654714320600,5.844320556640625,-1.4624114036560059,-0.1111774742603302,0.7904596328735352
1717005654724309500,5.8543095703125,-1.2687671184539795,-0.1918116807937622,0.7935139536857605
1717005654734309600,5.8643095703125,-1.0824532508850098,-0.28649580478668213,0.8002334833145142
1717005654744298500,5.874298583984375,-0.9095783233642578,-0.3805690407752991,0.8161159753799438
1717005654754331400,5.884331298828125,-0.7586946487426758,-0.46853363513946533,0.8423831462860107
1717005654764287500,5.89428759765625,-0.6377432942390442,-0.5467243790626526,0.8686503767967224
1717005654774320000,5.904320068359375,-0.5174028873443604,-0.6035348773002625,0.8704829812049866
1717005654784307200,5.91430712890625,-0.384845107793808,-0.6218608021736145,0.8326093554496765
1717005654794309400,5.924309326171875,-0.24617868661880493,-0.6157521605491638,0.7605272531509399
1717005654804296200,5.934296142578125,-0.10873401165008545,-0.5876523852348328,0.6603453159332275
1717005654814328800,5.944328857421875,0.02015855349600315,-0.5320636034011841,0.5271766781806946
1717005654824285200,5.95428515625,0.14538592100143433,-0.44776421785354614,0.3793473243713379
1717005654834317600,5.964317626953125,0.2632829248905182,-0.3536909818649292,0.23029619455337524
1717005654844304600,5.9743046875,0.34636059403419495,-0.2730567753314972,0.1062905490398407
1717005654854306800,5.984306884765625,0.39584067463874817,-0.2321287989616394,0.006108652334660292
1717005654864293600,5.994293701171875,0.44104471802711487,-0.2382374405860901,-0.08796459436416626
1717005654874326500,6.004326416015625,0.5222898125648499,-0.24862214922904968,-0.1765400618314743
1717005654884282600,6.01428271484375,0.6676757335662842,-0.25473082065582275,-0.25473082065582275
1717005654894315500,6.0243154296875,0.8570439219474792,-0.24007004499435425,-0.33169981837272644
1717005654904302300,6.03430224609375,1.0488556623458862,-0.18081611394882202,-0.3885102868080139
1717005654914304800,6.0443046875,1.1869112253189087,-0.0708603709936142,-0.394618958234787
1717005654924291300,6.054291259765625,1.2754865884780884,0.07635815441608429,-0.34208452701568604
1717005654934324200,6.06432421875,1.338405728340149,0.21319197118282318,-0.2528982162475586
1717005654944280300,6.0742802734375,1.3524556159973145,0.2974913716316223,-0.1368338167667389
1717005654954311000,6.084310791015625,1.312138557434082,0.33169981837272644,0.006108652334660292
1717005654964299800,6.0942998046875,1.246165156364441,0.29993483424186707,0.1716531366109848
1717005654974330600,6.10433056640625,1.1924089193344116,0.20525072515010834,0.33169981837272644
1717005654984289000,6.1142890625,1.1447614431381226,0.039095375686883926,0.43799036741256714
1717005654994321700,6.12432177734375,1.103833556175232,-0.15760323405265808,0.48685958981513977
1717005655004308500,6.13430859375,1.0781772136688232,-0.35124751925468445,0.5106833577156067
1717005655014311000,6.144310791015625,1.0751228332519531,-0.4966334402561188,0.5308418869972229
1717005655024297500,6.15429736328125,1.1074986457824707,-0.5833762884140015,0.5479460954666138
1717005655034330000,6.164330078125,1.166752576828003,-0.5723807215690613,0.5497786998748779
1717005655044286500,6.174286376953125,1.2516628503799438,-0.47219884395599365,0.5406157374382019
1717005655054319000,6.184319091796875,1.341460108757019,-0.3396410644054413,0.5167919993400574
1717005655064306000,6.194305908203125,1.4996742010116577,-0.06658431142568588,0.4905247986316681
1717005655074308000,6.20430810546875,1.6401731967926025,0.152105450630188,0.475253164768219
1717005655084295000,6.214294921875,1.7812830209732056,0.34513887763023376,0.47342056035995483
1717005655094327800,6.224327880859375,1.8796323537826538,0.4642575979232788,0.49724429845809937
1717005655104284200,6.2342841796875,1.9211711883544922,0.48258355259895325,0.5558874011039734
1717005655114314500,6.244314453125,1.9333884716033936,0.413555771112442,0.6352998614311218
1717005655124303600,6.2543037109375,1.9260581731796265,0.30115658044815063,0.7073819637298584
1717005655134303500,6.264303466796875,1.8808541297912598,0.1618792861700058,0.759305477142334
1717005655144291800,6.274291748046875,1.788002610206604,0.016493361443281174,0.7996225953102112
1717005655154323000,6.284322998046875,1.660942554473877,-0.13866640627384186,0.8381071090698242
1717005655164281000,6.294281005859375,1.5192219018936157,-0.2828305959701538,0.8998045325279236
1717005655174312000,6.30431201171875,1.3603968620300293,-0.455705463886261,0.978606104850769
1717005655184300800,6.31430078125,1.188132882118225,-0.627358615398407,1.0403034687042236
1717005655194300700,6.32430078125,1.0409144163131714,-0.7452555894851685,1.0482447147369385
1717005655204289500,6.33428955078125,0.9327912330627441,-0.8118399381637573,0.9676105380058289
1717005655214320000,6.344320068359375,0.8521569967269897,-0.8454375267028809,0.8008443117141724
1717005655224309200,6.354309326171875,0.7831292152404785,-0.8484918475151062,0.5864306092262268
1717005655234309000,6.36430908203125,0.7568620443344116,-0.808174729347229,0.3830125033855438
1717005655244298500,6.374298583984375,0.8008443117141724,-0.7507534027099609,0.23396138846874237
1717005655254329000,6.3843291015625,0.8845328688621521,-0.6988298296928406,0.16065755486488342
1717005655264287500,6.39428759765625,0.9584475755691528,-0.6786713004112244,0.18020524084568024
1717005655274318600,6.404318603515625,0.9920451641082764,-0.6774495840072632,0.2681698501110077
1717005655284307200,6.41430712890625,0.96883225440979,-0.6487388610839844,0.3897320330142975
1717005655294307300,6.424307373046875,0.8955284357070923,-0.5803219676017761,0.50335294008255
1717005655304296200,6.434296142578125,0.769690215587616,-0.5198463201522827,0.5662720799446106
1717005655314326500,6.444326416015625,0.5968153476715088,-0.5057964324951172,0.5528330206871033
1717005655324285200,6.45428515625,0.3995058834552765,-0.5314527750015259,0.46792277693748474
1717005655334315500,6.4643154296875,0.20952677726745605,-0.5613851547241211,0.34636059403419495
1717005655344304600,6.4743046875,0.05864306539297104,-0.5943718552589417,0.2321287989616394
1717005655354304500,6.484304443359375,-0.048258353024721146,-0.6243042945861816,0.15027284622192383
1717005655364293600,6.494293701171875,-0.12339477986097336,-0.6517932415008545,0.10812314599752426
1717005655374324200,6.50432421875,-0.1765400618314743,-0.66584312915802,0.10567969083786011
1717005655384282600,6.51428271484375,-0.22907446324825287,-0.6798930168151855,0.13561208546161652
1717005655394313200,6.524313232421875,-0.2877175211906433,-0.6963863968849182,0.18875735998153687
1717005655404302300,6.53430224609375,-0.3549126982688904,-0.7086036801338196,0.2620611786842346
1717005655414302200,6.54430224609375,-0.4447098970413208,-0.7250970602035522,0.34636059403419495
1717005655424291300,6.554291259765625,-0.5662720799446106,-0.749531626701355,0.42699480056762695
1717005655434321700,6.56432177734375,-0.7024950385093689,-0.7641924023628235,0.4899139404296875
1717005655444280300,6.5742802734375,-0.8313875794410706,-0.759305477142334,0.5265658497810364
1717005655454313000,6.58431298828125,-0.9382890462875366,-0.7318165898323059,0.5387831330299377
1717005655464299800,6.5942998046875,-1.0122036933898926,-0.6725626587867737,0.5442809462547302
1717005655474332700,6.604332763671875,-1.0396926403045654,-0.5748242139816284,0.5674937963485718
1717005655484289000,6.6142890625,-1.0396926403045654,-0.4764748811721802,0.6255260109901428
1717005655494321700,6.62432177734375,-1.0415252447128296,-0.4105014503002167,0.7177666425704956
1717005655504308500,6.63430859375,-1.0696250200271606,-0.403781920671463,0.856433093547821
1717005655514311000,6.644310791015625,-1.1368201971054077,-0.47708576917648315,1.0403034687042236
1717005655524297500,6.65429736328125,-1.2198978662490845,-0.5864306092262268,1.2510520219802856
1717005655534330000,6.664330078125,-1.2791517972946167,-0.7275404930114746,1.453248381614685
1717005655544286500,6.674286376953125,-1.3103059530258179,-0.9260717034339905,1.632842779159546
1717005655554319000,6.684319091796875,-1.3164145946502686,-1.1453723907470703,1.804495930671692
1717005655564306000,6.694305908203125,-1.3029755353927612,-1.3811663389205933,1.9639317989349365
1717005655574307800,6.704307861328125,-1.2785409688949585,-1.6603317260742188,2.0842721462249756
1717005655584295000,6.714294921875,-1.2522737979888916,-1.9413297176361084,2.158186912536621
1717005655594327600,6.72432763671875,-1.246165156364441,-2.1545217037200928,2.2040019035339355
1717005655604284200,6.7342841796875,-1.2797627449035645,-2.241264581680298,2.241264581680298
1717005655614316800,6.74431689453125,-1.3475687503814697,-2.22782564163208,2.2736403942108154
1717005655624303600,6.7543037109375,-1.4269812107086182,-2.158186912536621,2.3035728931427
1717005655634305500,6.764305419921875,-1.4978415966033936,-2.0555615425109863,2.3408355712890625
1717005655644292400,6.774292236328125,-1.5302174091339111,-1.9285016059875488,2.386650562286377
1717005655654325000,6.784324951171875,-1.4899003505706787,-1.7568484544754028,2.442239284515381
1717005655664281600,6.794281494140625,-1.4245377779006958,-1.663996934890747,2.4526238441467285
1717005655674314000,6.80431396484375,-1.3322970867156982,-1.5943583250045776,2.4434609413146973
1717005655684301000,6.814301025390625,-1.2205088138580322,-1.5558737516403198,2.403754711151123
1717005655694303200,6.82430322265625,-1.1160508394241333,-1.5289957523345947,2.339003086090088
1717005655704290000,6.8342900390625,-1.0427470207214355,-1.50211763381958,2.2602014541625977
1717005655714322700,6.84432275390625,-0.9914342761039734,-1.5082262754440308,2.1655173301696777
1717005655724309500,6.8543095703125,-0.9590584635734558,-1.5344934463500977,2.0622811317443848
1717005655734311400,6.8643115234375,-0.9511171579360962,-1.5289957523345947,1.9639317989349365
1717005655744298500,6.874298583984375,-0.960280179977417,-1.4758504629135132,1.8490891456604004
1717005655754331100,6.8843310546875,-0.9828822016716003,-1.3842206001281738,1.7006487846374512
1717005655764287700,6.894287841796875,-1.016479730606079,-1.2559388875961304,1.5253305435180664
1717005655774320000,6.904320068359375,-1.0616837739944458,-1.1007791757583618,1.3377948999404907
1717005655784307200,6.91430712890625,-1.1166616678237915,-0.9352346658706665,1.1508700847625732
1717005655794309000,6.92430908203125,-1.177748203277588,-0.7849618196487427,0.9871582388877869
1717005655804296200,6.934296142578125,-1.2205088138580322,-0.6688974499702454,0.8423831462860107
1717005655814328800,6.944328857421875,-1.2406673431396484,-0.5797111392021179,0.7079927921295166
1717005655824285200,6.95428515625,-1.2272282838821411,-0.5021312236785889,0.5925393104553223
1717005655834318000,6.964318115234375,-1.179580807685852,-0.4502076804637909,0.5009095072746277
1717005655844304600,6.9743046875,-1.0983357429504395,-0.42638394236564636,0.43799036741256714
1717005655854306800,6.984306884765625,-0.9932668805122375,-0.40622538328170776,0.41233405470848083
1717005655864293600,6.994293701171875,-0.8717046976089478,-0.3738495409488678,0.4288274049758911
1717005655874326500,7.004326416015625,-0.7611380815505981,-0.33658674359321594,0.47280970215797424
1717005655884282600,7.01428271484375,-0.6737843751907349,-0.29626965522766113,0.5357288122177124
1717005655894315500,7.0243154296875,-0.608421802520752,-0.26145032048225403,0.6047565937042236
1717005655904302300,7.03430224609375,-0.5693264007568359,-0.24617868661880493,0.6670648455619812
1717005655914304300,7.04430419921875,-0.5467243790626526,-0.2535090744495392,0.7171558141708374
1717005655924291300,7.054291259765625,-0.5326744914054871,-0.26450464129447937,0.7538077235221863
1717005655934323700,7.06432373046875,-0.5100724697113037,-0.2767219543457031,0.7825183868408203
1717005655944280300,7.0742802734375,-0.4660901725292206,-0.2926044464111328,0.79840087890625
1717005655954313000,7.08431298828125,-0.40683624148368835,-0.3219259977340698,0.7929030656814575
1717005655964299800,7.0942998046875,-0.33658674359321594,-0.35674530267715454,0.7623597979545593
1717005655974332400,7.10433251953125,-0.2583959996700287,-0.3744603991508484,0.7098253965377808
1717005655984289000,7.1142890625,-0.17409659922122955,-0.37140607833862305,0.6389650702476501
1717005655994321400,7.1243212890625,-0.08429940044879913,-0.3579670190811157,0.5589417219161987
1717005656004308500,7.13430859375,0.006719517521560192,-0.32498031854629517,0.48685958981513977
1717005656014310400,7.144310302734375,0.08674286305904388,-0.2742784917354584,0.4300491213798523
1717005656024297500,7.15429736328125,0.16065755486488342,-0.22968533635139465,0.38117989897727966
1717005656034330000,7.164330078125,0.23335053026676178,-0.16798794269561768,0.32559117674827576
1717005656044286500,7.174286376953125,0.32620203495025635,-0.06780604273080826,0.2730567753314972
1717005656054319000,7.184319091796875,0.4440990388393402,0.02626720629632473,0.23396138846874237
1717005656064306000,7.194305908203125,0.5797111392021179,0.10018189996480942,0.19853121042251587
1717005656074308400,7.204308349609375,0.7348709106445312,0.16737708449363708,0.1569923609495163
1717005656084323800,7.21432373046875,0.9101892113685608,0.2528982162475586,0.1111774742603302
1717005656094327800,7.224327880859375,1.0879509449005127,0.3793473243713379,0.06902777403593063
1717005656104284200,7.2342841796875,1.2522737979888916,0.5265658497810364,0.0507018156349659
1717005656114316800,7.24431689453125,1.3866641521453857,0.665232241153717,0.07269296050071716
1717005656124304000,7.254303955078125,1.4776830673217773,0.769690215587616,0.1508837193250656
1717005656134303700,7.2643037109375,1.5112806558609009,0.8136724829673767,0.2779437005519867
1717005656144291800,7.274291748046875,1.480737328529358,0.7745771408081055,0.43615779280662537
1717005656154322700,7.28432275390625,1.3573426008224487,0.6279694437980652,0.6004805564880371
1717005656164281000,7.294281005859375,1.160033106803894,0.3903428912162781,0.750142514705658
1717005656174311700,7.304311767578125,0.9382890462875366,0.11362093687057495,0.8655960559844971
1717005656184300800,7.31430078125,0.759305477142334,-0.1618792861700058,0.9346238374710083
1717005656194302700,7.324302734375,0.6713408827781677,-0.4050036668777466,0.970054030418396
1717005656204289500,7.33428955078125,0.6860016584396362,-0.5766568183898926,1.0018190145492554
1717005656214322200,7.344322265625,0.7867944240570068,-0.6615670323371887,1.0335839986801147
1717005656224309000,7.35430908203125,0.9511171579360962,-0.6688974499702454,1.0751228332519531
1717005656234311200,7.364311279296875,1.1398745775222778,-0.6053674817085266,1.1178834438323975
1717005656244298500,7.374298583984375,1.359175205230713,-0.45631635189056396,1.1844676733016968
1717005656254331400,7.384331298828125,1.4275920391082764,-0.38728857040405273,1.23394775390625
1717005656264287500,7.39428759765625,1.4367550611495972,-0.3585779070854187,1.2748757600784302
1717005656274320400,7.4043203125,1.4098769426345825,-0.3481931984424591,1.3078625202178955
1717005656284307200,7.41430712890625,1.367727279663086,-0.3549126982688904,1.3530665636062622
1717005656294309600,7.4243095703125,1.3267992734909058,-0.39767327904701233,1.4086552858352661
1717005656304296200,7.434296142578125,1.2864822149276733,-0.475253164768219,1.4685200452804565
1717005656314328600,7.44432861328125,1.2559388875961304,-0.5791002511978149,1.5369369983673096
1717005656324285200,7.45428515625,1.2467759847640991,-0.7079927921295166,1.6114624738693237
1717005656334317800,7.46431787109375,1.2492194175720215,-0.8649851679801941,1.6811012029647827
1717005656344304600,7.4743046875,1.2443325519561768,-1.0225883722305298,1.7256942987442017
1717005656354306600,7.484306640625,1.2198978662490845,-1.151481032371521,1.740355134010315
1717005656364293600,7.494293701171875,1.1771373748779297,-1.2278391122817993,1.6982053518295288
1717005656374324000,7.504323974609375,1.1105530261993408,-1.2467759847640991,1.6047430038452148
1717005656384282600,7.51428271484375,1.0348057746887207,-1.2247848510742188,1.4868459701538086
1717005656394313200,7.524313232421875,0.9657779335975647,-1.188132882118225,1.3634512424468994
1717005656404302300,7.53430224609375,0.8845328688621521,-1.1533136367797852,1.2223412990570068
1717005656414302200,7.54430224609375,0.79840087890625,-1.1166616678237915,1.074512004852295
1717005656424291300,7.554291259765625,0.7037167549133301,-1.06657075881958,0.9364564418792725
1717005656434321700,7.56432177734375,0.6096435189247131,-0.9920451641082764,0.8148942589759827
1717005656444280300,7.5742802734375,0.5192354321479797,-0.9431759119033813,0.7134906053543091
1717005656454311000,7.584310791015625,0.4282165467739105,-0.9150761365890503,0.6444628238677979
1717005656464299800,7.5942998046875,0.34574973583221436,-0.902247965335846,0.616973876953125
1717005656474332400,7.60433251953125,0.2736676335334778,-0.9059131741523743,0.6163630485534668
1717005656484288800,7.614288818359375,0.20830504596233368,-0.9199630618095398,0.6194173693656921
1717005656494321700,7.62432177734375,0.15271630883216858,-0.9175195693969727,0.6304129362106323
1717005656504308500,7.63430859375,0.11056660860776901,-0.8869763612747192,0.6481280326843262
1717005656514310700,7.644310546875,0.08429940044879913,-0.8423831462860107,0.6713408827781677
1717005656524297500,7.65429736328125,0.06841690838336945,-0.7831292152404785,0.6969972252845764
1717005656534330000,7.664330078125,0.060475658625364304,-0.7257078886032104,0.7202101349830627
1717005656544286200,7.6742861328125,0.05803219974040985,-0.6860016584396362,0.7312057018280029
1717005656554319000,7.684319091796875,0.05742133408784866,-0.6676757335662842,0.7299839854240417
1717005656564306000,7.694305908203125,0.05619960278272629,-0.6640105247497559,0.7220427393913269
1717005656574307800,7.704307861328125,0.056810468435287476,-0.675616979598999,0.7110471725463867
1717005656584295000,7.714294921875,0.05253441259264946,-0.7031059265136719,0.6976081132888794
1717005656594327600,7.72432763671875,0.04092797264456749,-0.7440338730812073,0.6737843751907349
1717005656604284200,7.7342841796875,0.02687807008624077,-0.7800748944282532,0.6414085030555725
1717005656614316300,7.74431640625,0.009773843921720982,-0.7916813492774963,0.6023131608963013
1717005656624303600,7.7543037109375,-0.007941247895359993,-0.7806857824325562,0.5583308339118958
1717005656634305500,7.764305419921875,-0.03237585723400116,-0.7538077235221863,0.5149593949317932
1717005656644292400,7.774292236328125,-0.05864306539297104,-0.7141014933586121,0.4746423065662384
1717005656654325000,7.784324951171875,-0.08735372871160507,-0.6872233748435974,0.44165557622909546
1717005656664281600,7.794281494140625,-0.1062905490398407,-0.6762278079986572,0.4282165467739105
1717005656674314000,7.80431396484375,-0.08429940044879913,-0.6713408827781677,0.4599815309047699
1717005656684301000,7.814301025390625,-0.018936822190880775,-0.6420193910598755,0.5308418869972229
1717005656694303200,7.82430322265625,0.07513642311096191,-0.636521577835083,0.618195652961731
1717005656704290000,7.8342900390625,0.14294247329235077,-0.6475171446800232,0.7098253965377808
1717005656714320600,7.844320556640625,0.1514945775270462,-0.6475171446800232,0.8161159753799438
1717005656724309800,7.854309814453125,0.0757472887635231,-0.6334672570228577,0.9291260242462158
1717005656734309400,7.864309326171875,-0.0959058403968811,-0.6230825781822205,1.018923282623291
1717005656744298500,7.874298583984375,-0.3384193480014801,-0.6249151229858398,1.0793988704681396
1717005656754329000,7.8843291015625,-0.6236934065818787,-0.656680166721344,1.1264355182647705
1717005656764287500,7.89428759765625,-0.9040805697441101,-0.7171558141708374,1.1850786209106445
1717005656774320000,7.904320068359375,-1.130711555480957,-0.7935139536857605,1.2571606636047363
1717005656784307200,7.91430712890625,-1.2754865884780884,-0.8881980776786804,1.3298536539077759
1717005656794309400,7.924309326171875,-1.341460108757019,-1.0073168277740479,1.398881435394287
1717005656804296200,7.934296142578125,-1.3353514671325684,-1.1484266519546509,1.4770721197128296
1717005656814328600,7.94432861328125,-1.2681562900543213,-1.2974777221679688,1.547932505607605
1717005656824285200,7.95428515625,-1.1557570695877075,-1.4465289115905762,1.5974125862121582
1717005656834317600,7.964317626953125,-0.9944885969161987,-1.6059647798538208,1.6212363243103027
1717005656844304600,7.9743046875,-0.930347740650177,-1.6615535020828247,1.5913039445877075
1717005656854306800,7.984306884765625,-0.9327912330627441,-1.6762142181396484,1.529606580734253
1717005656864293600,7.994293701171875,-0.9999864101409912,-1.6475036144256592,1.4538593292236328
1717005656874326300,8.004326171875,-1.1099421977996826,-1.5625933408737183,1.3646728992462158
1717005656884282600,8.01428271484375,-1.2510520219802856,-1.4184291362762451,1.2602150440216064
1717005656894315500,8.0243154296875,-1.4190399646759033,-1.2260065078735352,1.1398745775222778
1717005656904302300,8.03430224609375,-1.5845844745635986,-1.0268645286560059,1.014647126197815
1717005656914304800,8.0443046875,-1.7263051271438599,-0.8765916228294373,0.9010262489318848
1717005656924291300,8.054291259765625,-1.8289304971694946,-0.8069530129432678,0.8100073337554932
1717005656934324000,8.064323974609374,-1.8930714130401611,-0.7764097452163696,0.7446447610855103
1717005656944280300,8.0742802734375,-1.9352210760116577,-0.7519751191139221,0.6951646208763123
1717005656954313000,8.08431298828125,-1.9633208513259888,-0.7061602473258972,0.6487388610839844
1717005656964299800,8.0942998046875,-1.974927306175232,-0.6298020482063293,0.6090326309204102
1717005656974332700,8.104332763671875,-1.974927306175232,-0.5418374538421631,0.5681046843528748
1717005656984289000,8.1142890625,-1.968207836151123,-0.44837507605552673,0.5271766781806946
1717005656994321700,8.12432177734375,-1.9566013813018799,-0.33658674359321594,0.49357911944389343
1717005657004308500,8.13430859375,-1.9413297176361084,-0.21074850857257843,0.45814892649650574
1717005657014310700,8.144310546875,-1.9156733751296997,-0.08735372871160507,0.4184426963329315
1717005657024297500,8.15429736328125,-1.8710802793502808,0.019547687843441963,0.3628539443016052
1717005657034330000,8.164330078125,-1.796554684638977,0.1111774742603302,0.27611109614372253
1717005657044286500,8.174286376953125,-1.7037031650543213,0.18509216606616974,0.15943582355976105
1717005657054319000,8.184319091796874,-1.5888605117797852,0.2382374405860901,0.04337143152952194
1717005657064306000,8.194305908203125,-1.4526375532150269,0.27000242471694946,-0.04886921867728233
1717005657074308000,8.20430810546875,-1.3048081398010254,0.2669481039047241,-0.10262536257505417
1717005657084295000,8.214294921875,-1.1661417484283447,0.24923302233219147,-0.10201449692249298
1717005657094327800,8.224327880859375,-1.047023057937622,0.21074850857257843,-0.05742133408784866
1717005657104284200,8.2342841796875,-0.9474520087242126,0.1417207419872284,-0.016493361443281174
1717005657114316800,8.24431689453125,-0.8527678847312927,0.051312681287527084,-0.015882495790719986
1717005657124303600,8.2543037109375,-0.7635815739631653,-0.04337143152952194,-0.06719517707824707
1717005657134305800,8.264305908203125,-0.6627888083457947,-0.11423180252313614,-0.1508837193250656
1717005657144291800,8.274291748046876,-0.5296201705932617,-0.13561208546161652,-0.24190263450145721
1717005657154324700,8.28432470703125,-0.3604104816913605,-0.1264491081237793,-0.3029891550540924
1717005657164281000,8.294281005859375,-0.16920967400074005,-0.1062905490398407,-0.30970868468284607
1717005657174313700,8.304313720703124,0.025045474991202354,-0.09712757170200348,-0.2620611786842346
1717005657184300800,8.31430078125,0.18631389737129211,-0.12217304855585098,-0.16737708449363708
1717005657194303000,8.324302978515625,0.27550023794174194,-0.16920967400074005,-0.04337143152952194
1717005657204289500,8.33428955078125,0.32986724376678467,-0.2376265823841095,0.05375614017248154
1717005657214322400,8.344322509765625,0.3982841372489929,-0.3500257730484009,0.08246681094169617
1717005657224309000,8.35430908203125,0.48258355259895325,-0.4764748811721802,0.03420845419168472
1717005657234311400,8.3643115234375,0.5687155723571777,-0.5919284224510193,-0.08429940044879913
1717005657244298500,8.374298583984375,0.6499606370925903,-0.6511823534965515,-0.23945917189121246
1717005657254331100,8.3843310546875,0.7354817390441895,-0.6090326309204102,-0.394618958234787
1717005657264287500,8.39428759765625,0.836885392665863,-0.4495968222618103,-0.5253441333770752
1717005657274320400,8.4043203125,0.9523389339447021,-0.1875356286764145,-0.617584764957428
1717005657284307200,8.41430712890625,1.06351637840271,0.13255776464939117,-0.6585127115249634
1717005657294309400,8.424309326171874,1.160033106803894,0.4746423065662384,-0.6352998614311218
1717005657304296200,8.434296142578125,1.2302825450897217,0.7733554244041443,-0.5497786998748779
1717005657314329000,8.4443291015625,1.2803735733032227,0.9975429177284241,-0.4337143301963806
1717005657324285200,8.45428515625,1.3029755353927612,1.1227703094482422,-0.3494149148464203
1717005657334317600,8.464317626953125,1.2883148193359375,1.1429288387298584,-0.3280346393585205
1717005657344304600,8.4743046875,1.243721604347229,1.0574077367782593,-0.35735616087913513
1717005657354306800,8.484306884765624,1.2009611129760742,0.8985827565193176,-0.42210787534713745
1717005657364293600,8.494293701171875,1.1704177856445312,0.7110471725463867,-0.4960225820541382
1717005657374326500,8.504326416015624,1.1722503900527954,0.523511528968811,-0.5589417219161987
1717005657384283000,8.514282958984374,1.2315043210983276,0.3701843321323395,-0.588874101638794
1717005657394315500,8.5243154296875,1.357953429222107,0.25106561183929443,-0.5699372887611389
1717005657404302300,8.53430224609375,1.5338826179504395,0.1466076523065567,-0.5094616413116455
1717005657414304500,8.544304443359374,1.718363881111145,0.08796459436416626,-0.42149701714515686
1717005657424291300,8.554291259765625,1.9798142910003662,0.15393804013729095,-0.27550023794174194
1717005657434324200,8.56432421875,2.107485055923462,0.24923302233219147,-0.2070833146572113
1717005657444280300,8.5742802734375,2.163684606552124,0.37262779474258423,-0.1716531366109848
1717005657454313000,8.58431298828125,2.1600193977355957,0.5155702829360962,-0.1618792861700058
1717005657464299800,8.5942998046875,2.1368067264556885,0.655458390712738,-0.16798794269561768
1717005657474332700,8.604332763671875,2.1142046451568604,0.7935139536857605,-0.18448130786418915
1717005657484289000,8.6142890625,2.088548183441162,0.9242390990257263,-0.2028072625398636
1717005657494319600,8.624319580078126,2.0427334308624268,1.037249207496643,-0.21074850857257843
1717005657504308500,8.63430859375,1.9737056493759155,1.0971139669418335,-0.2021963894367218
1717005657514308600,8.64430859375,1.8759671449661255,1.0873401165008545,-0.1869247704744339
1717005657524297500,8.65429736328125,1.757459282875061,0.9999864101409912,-0.16982053220272064
1717005657534328000,8.664328125,1.6102408170700073,0.8558222055435181,-0.16065755486488342
1717005657544286200,8.6742861328125,1.433700680732727,0.685390830039978,-0.15943582355976105
1717005657554317000,8.684317138671876,1.2510520219802856,0.5241223573684692,-0.17104226350784302
1717005657564306000,8.694305908203125,1.0855075120925903,0.3805690407752991,-0.1814269721508026
1717005657574306300,8.704306396484375,0.9480628371238708,0.2577851414680481,-0.18875735998153687
1717005657584295000,8.714294921875,0.8411614298820496,0.18997909128665924,-0.2076941877603531
1717005657594325500,8.724325439453125,0.7678576111793518,0.1918116807937622,-0.24434609711170197
1717005657604284200,8.7342841796875,0.720820963382721,0.24617868661880493,-0.2834414839744568
1717005657614314500,8.744314453125,0.6811147332191467,0.31459560990333557,-0.32070425152778625
1717005657624303400,8.754303466796875,0.6261368989944458,0.38667771220207214,-0.39584067463874817
1717005657634305800,8.764305908203125,0.5937610268592834,0.48197266459465027,-0.50335294008255
1717005657644292400,8.774292236328124,0.5827654600143433,0.6352998614311218,-0.6108652353286743
1717005657654323000,8.784322998046875,0.5699372887611389,0.7898487448692322,-0.6994407176971436
1717005657664281600,8.794281494140625,0.5455026626586914,0.9089674949645996,-0.7574729323387146
1717005657674314000,8.80431396484375,0.5265658497810364,1.0012081861495972,-0.7874053120613098
1717005657684301000,8.814301025390625,0.5308418869972229,1.0653489828109741,-0.7721336483955383
1717005657694303200,8.82430322265625,0.5418374538421631,1.10139000415802,-0.6963863968849182
1717005657704290000,8.8342900390625,0.5455026626586914,1.0806206464767456,-0.5510004758834839
1717005657714322700,8.84432275390625,0.5564982295036316,0.988379955291748,-0.38728857040405273
1717005657724309500,8.8543095703125,0.5522221922874451,0.8252789378166199,-0.28527405858039856
1717005657734311700,8.864311767578124,0.513126790523529,0.637132465839386,-0.26083946228027344
1717005657744298500,8.874298583984375,0.4599815309047699,0.46670106053352356,-0.25473082065582275
1717005657754329000,8.8843291015625,0.4080579876899719,0.31581732630729675,-0.23518311977386475
1717005657764287700,8.894287841796874,0.36651915311813354,0.16004669666290283,-0.20402899384498596
1717005657774318300,8.904318359375,0.3176499307155609,0.04642575979232788,-0.16493362188339233
1717005657784307200,8.91430712890625,0.2571742534637451,0,-0.11178833991289139
1717005657794307300,8.924307373046876,0.18081611394882202,0.001832595793530345,-0.04703662544488907
1717005657804296200,8.934296142578125,0.08674286305904388,0.030543262138962746,0.005497787147760391
1717005657814326500,8.944326416015626,0.005497787147760391,0.06352998316287994,0.02382374368607998
1717005657824285200,8.95428515625,-0.045204028487205505,0.10262536257505417,0.00733038317412138
1717005657834315800,8.964315673828125,-0.09529497474431992,0.14049901068210602,-0.03176499158143997
1717005657844304600,8.9743046875,-0.16432274878025055,0.15882496535778046,-0.08246681094169617
1717005657854305000,8.984304931640626,-0.24923302233219147,0.16737708449363708,-0.11545353382825851
1717005657864293600,8.994293701171875,-0.34513887763023376,0.17776179313659668,-0.11484266817569733
1717005657874324500,9.004324462890626,-0.44287729263305664,0.19120082259178162,-0.07452555745840073
1717005657884283000,9.014282958984374,-0.5534439086914062,0.19608774781227112,0.01160643994808197
1717005657894313500,9.0243134765625,-0.6780604124069214,0.17898350954055786,0.13072516024112701
1717005657904302300,9.03430224609375,-0.8185594081878662,0.13561208546161652,0.2583959996700287
1717005657914302500,9.044302490234376,-0.9712757468223572,0.054367005825042725,0.3787364661693573
1717005657924291300,9.054291259765625,-1.1423180103302002,-0.06352998316287994,0.48685958981513977
1717005657934322000,9.064322021484376,-1.3151928186416626,-0.24007004499435425,0.5760459303855896
1717005657944280300,9.0742802734375,-1.483791708946228,-0.46670106053352356,0.646906316280365
1717005657954313000,9.08431298828125,-1.6310101747512817,-0.6994407176971436,0.7055493593215942
1717005657964299800,9.0942998046875,-1.7348573207855225,-0.9077457785606384,0.7629706859588623
1717005657974332700,9.104332763671875,-1.757459282875061,-1.064738154411316,0.8203920125961304
1717005657984289000,9.1142890625,-1.671938180923462,-1.1575896739959717,0.8759807348251343
1717005657994321700,9.12432177734375,-1.5112806558609009,-1.19607412815094,0.9199630618095398
1717005658004308500,9.13430859375,-1.32863187789917,-1.1826350688934326,0.9450085163116455
1717005658014311000,9.144310791015625,-1.1447614431381226,-1.111163854598999,0.8930850028991699
1717005658024297500,9.15429736328125,-1.1252137422561646,-1.0824532508850098,0.7867944240570068
1717005658034330000,9.164330078125,-1.1905763149261475,-1.036027431488037,0.6585127115249634
1717005658044286500,9.174286376953125,-1.3066407442092896,-0.9615018963813782,0.5571091175079346
1717005658054319000,9.184319091796874,-1.4624114036560059,-0.8649851679801941,0.48808133602142334
1717005658064306000,9.194305908203125,-1.6468926668167114,-0.7666358947753906,0.45265114307403564
1717005658074308000,9.20430810546875,-1.8350391387939453,-0.6762278079986572,0.43249258399009705
1717005658084323800,9.21432373046875,-2.0109684467315674,-0.5968153476715088,0.4031710624694824
1717005658094327800,9.224327880859375,-2.1545217037200928,-0.5247332453727722,0.3500257730484009
1717005658104284200,9.2342841796875,-2.266309976577759,-0.46181413531303406,0.2742784917354584
1717005658114317000,9.244317138671875,-2.364048480987549,-0.4043927788734436,0.19120082259178162
1717005658124303600,9.2543037109375,-2.447736978530884,-0.34758231043815613,0.11423180252313614
1717005658134305800,9.264305908203125,-2.5167648792266846,-0.2926044464111328,0.051312681287527084
1717005658144291800,9.274291748046876,-2.5589144229888916,-0.2431243658065796,0.003054326167330146
1717005658154325000,9.284324951171875,-2.5784621238708496,-0.19303341209888458,-0.03420845419168472
1717005658164281000,9.294281005859375,-2.5668556690216064,-0.1411098688840866,-0.06475171446800232
1717005658174314000,9.30431396484375,-2.525927782058716,-0.07819075137376785,-0.0861319974064827
1717005658184300800,9.31430078125,-2.4605650901794434,-0.007941247895359993,-0.11056660860776901
1717005658194303000,9.324302978515625,-2.3878722190856934,0.06963863968849182,-0.14782938361167908
1717005658204289500,9.33428955078125,-2.3298399448394775,0.13927727937698364,-0.2064724564552307
1717005658214322200,9.344322265625,-2.2956316471099854,0.16004669666290283,-0.26939156651496887
1717005658224309000,9.35430908203125,-2.2687535285949707,0.12034045159816742,-0.31581732630729675
1717005658234311400,9.3643115234375,-2.2101104259490967,0.12950342893600464,-0.33719760179519653
1717005658244298500,9.374298583984375,-2.152078151702881,0.2926044464111328,-0.30970868468284607
1717005658254331100,9.3843310546875,-2.152078151702881,0.617584764957428,-0.24373523890972137
1717005658264287500,9.39428759765625,-2.2186625003814697,1.0946705341339111,-0.15454891324043274
1717005658274320400,9.4043203125,-2.244929790496826,1.5277739763259888,-0.06719517707824707
1717005658284307200,9.41430712890625,-1.8863518238067627,2.188730239868164,-0.15271630883216858
1717005658294307000,9.42430712890625,-1.4874569177627563,2.6108381748199463,-0.3500257730484009
1717005658304296200,9.434296142578125,-1.5045610666275024,2.6951375007629395,-0.5021312236785889
1717005658314326500,9.444326416015626,-1.8698585033416748,2.4526238441467285,-0.5064072608947754
1717005658324285200,9.45428515625,-2.0946569442749023,2.0470094680786133,-0.47219884395599365
1717005658334315800,9.464315673828125,-2.0592267513275146,1.433700680732727,-0.47708576917648315
1717005658344304600,9.4743046875,-2.065946340560913,0.8845328688621521,-0.38606682419776917
1717005658354305000,9.484304931640626,-2.1392500400543213,0.5100724697113037,-0.18448130786418915
1717005658364293600,9.494293701171875,-2.2040019035339355,0.2932153046131134,-0.036041051149368286
1717005658374324500,9.504324462890626,-2.2101104259490967,0.3023782968521118,-0.02932153269648552
1717005658384283000,9.514282958984374,-2.1765129566192627,0.5791002511978149,-0.16982053220272064
1717005658394313500,9.5243134765625,-2.1728477478027344,1.072068452835083,-0.4141666293144226
1717005658404302300,9.53430224609375,-2.14902400970459,2.3359487056732178,-0.5076290369033813
1717005658414302000,9.544302001953126,-2.1203131675720215,2.8820621967315674,-0.7134906053543091
1717005658424291300,9.554291259765625,-2.0555615425109863,3.109304189682007,-0.8594874143600464
1717005658434321400,9.5643212890625,-1.935831904411316,3.4208452701568604,-1.0030407905578613
1717005658444280300,9.5742802734375,-1.8362609148025513,3.6163222789764404,-1.2718214988708496
1717005658454310700,9.584310546875,-1.8820757865905762,3.9266417026519775,-1.5888605117797852
1717005658464299800,9.5942998046875,-1.9700404405593872,4.156938076019287,-1.8875735998153687
1717005658474330400,9.604330322265625,-1.9999728202819824,4.066529750823975,-2.138639211654663
1717005658484288800,9.614288818359375,-1.8832975625991821,3.623652696609497,-2.2766947746276855
1717005658494319000,9.624319091796876,-1.6126842498779297,2.747061014175415,-2.252260208129883
1717005658504308500,9.63430859375,-1.3671164512634277,1.6139060258865356,-2.0176877975463867
1717005658514310700,9.644310546875,-1.3921618461608887,0.7275404930114746,-1.6572774648666382
1717005658524297500,9.65429736328125,-1.4776830673217773,0.47280970215797424,-1.189354658126831
1717005658534330000,9.664330078125,-1.6206254959106445,0.8973610401153564,-0.5711590051651001
1717005658544286500,9.674286376953125,-1.8936822414398193,1.5112806558609009,0.1313360333442688
1717005658554319000,9.684319091796874,-2.1600193977355957,1.7519614696502686,0.8332201838493347
1717005658564306000,9.694305908203125,-2.3469443321228027,1.4941763877868652,1.4892895221710205
1717005658574308000,9.70430810546875,-2.436741352081299,0.979216992855072,2.079996109008789
1717005658584295000,9.714294921875,-2.4129176139831543,0.1472185254096985,2.4770586490631104
1717005658594325500,9.724325439453125,-2.2479841709136963,-1.0751228332519531,2.4086415767669678
1717005658604284200,9.7342841796875,-1.9346102476119995,-2.9376509189605713,1.613295078277588
1717005658614316500,9.744316650390624,-1.674992561340332,-3.475823163986206,1.1887437105178833
1717005658624303400,9.754303466796875,-1.3909401893615723,-3.461162567138672,0.9865473508834839
1717005658634303500,9.764303466796875,-1.130711555480957,-3.2058207988739014,0.8521569967269897
1717005658644292400,9.774292236328124,-0.9083566069602966,-2.585181713104248,0.6438519954681396
1717005658654323000,9.784322998046875,-0.7531968355178833,-1.5851953029632568,0.2889392673969269
1717005658664281600,9.794281494140625,-0.7434229850769043,-1.018923282623291,0.0757472887635231
1717005658674312200,9.804312255859376,-0.8881980776786804,-0.8038986921310425,-0.0012217304902151227
1717005658684301000,9.814301025390625,-1.1233811378479004,-0.7348709106445312,-0.09346238523721695
1717005658694301200,9.82430126953125,-1.3750576972961426,-0.6224716901779175,-0.24007004499435425
1717005658704290000,9.8342900390625,-1.4355332851409912,-0.27977627515792847,-0.50335294008255
1717005658714323000,9.844322998046875,-1.2211196422576904,0.17104226350784302,-0.8130616545677185
1717005658724309500,9.8543095703125,-0.808174729347229,0.8399397134780884,-1.0867292881011963
1717005658734309600,9.8643095703125,-0.3628539443016052,1.6945401430130005,-1.3164145946502686
1717005658744298500,9.874298583984375,0.05925392732024193,1.9480493068695068,-1.5351043939590454
1717005658754331100,9.8843310546875,0.46731191873550415,1.0427470207214355,-1.693318486213684
1717005658764287500,9.89428759765625,0.969443142414093,-0.323147714138031,-1.6988162994384766
1717005658774321000,9.90432080078125,1.451415777206421,-1.1655309200286865,-1.6139060258865356
1717005658784307200,9.91430712890625,1.8002198934555054,-1.6267341375350952,-1.513113260269165
1717005658794309400,9.924309326171874,2.060448408126831,-1.9211711883544922,-1.3946053981781006
1717005658804296200,9.934296142578125,2.2547035217285156,-1.9559905529022217,-1.2651019096374512
1717005658814326800,9.944326904296876,2.3939809799194336,-1.8081611394882202,-1.1282681226730347
1717005658824285200,9.95428515625,2.517986536026001,-1.5467108488082886,-1.006095051765442
1717005658834318000,9.964318115234375,2.7403414249420166,-0.9560040831565857,-0.8943067193031311
1717005658844304600,9.9743046875,3.0671544075012207,-0.3488040566444397,-0.7837401032447815
1717005658854305000,9.984304931640626,3.478266716003418,0.1514945775270462,-0.6835582256317139
1717005658864293600,9.994293701171875,3.9376373291015625,0.6927211880683899,-0.6065891981124878
1717005658874324200,10.00432421875,4.34874963760376,1.4844025373458862,-0.5455026626586914
1717005658884283000,10.014282958984374,4.6187520027160645,1.855197787284851,-0.6438519954681396
1717005658894313500,10.0243134765625,4.2003092765808105,1.2192870378494263,-1.282817006111145
1717005658904302300,10.03430224609375,2.9767463207244873,0.1258382350206375,-2.1728477478027344
1717005658914302500,10.044302490234376,1.9370536804199219,0.4184426963329315,-2.2485949993133545
1717005658924291300,10.054291259765625,1.4159855842590332,1.5167783498764038,-1.7751743793487549
1717005658934324000,10.064323974609374,1.1465940475463867,2.487443208694458,-1.246165156364441
1717005658944280300,10.0742802734375,0.9462302923202515,2.4410176277160645,-1.06351637840271
1717005658954311000,10.084310791015625,0.8350527882575989,2.191784381866455,-1.1184942722320557
1717005658964299800,10.0942998046875,0.8210029006004333,2.2290472984313965,-1.1099421977996826
1717005658974330400,10.104330322265625,0.8142833709716797,2.0647244453430176,-1.1899654865264893
1717005658984289000,10.1142890625,0.7641924023628235,1.6462818384170532,-1.4196507930755615
1717005658994319400,10.1243193359375,0.7086036801338196,1.1197160482406616,-1.681712031364441
1717005659004308500,10.13430859375,0.6823364496231079,0.6664539575576782,-1.8949040174484253
1717005659014308400,10.144308349609375,0.6866125464439392,0.3139847218990326,-2.0372354984283447
1717005659024297500,10.15429736328125,0.6731734871864319,-0.06719517707824707,-2.0286834239959717
1717005659034330000,10.164330078125,0.5992587804794312,-0.5174028873443604,-1.8319848775863647
1717005659044286500,10.174286376953125,0.523511528968811,-1.0005972385406494,-1.531439185142517
1717005659054318800,10.18431884765625,0.5351179838180542,-1.0531316995620728,-1.1887437105178833
1717005659064306000,10.194305908203125,0.5442809462547302,-0.7177666425704956,-0.7935139536857605
1717005659074308000,10.20430810546875,0.35124751925468445,-0.4489859640598297,-0.39095374941825867
1717005659084295000,10.214294921875,0.015271631069481373,-0.2779437005519867,-0.14782938361167908
1717005659094369000,10.224369140625,-0.3335324227809906,-0.1814269721508026,-0.10384709388017654
1717005659104325600,10.23432568359375,-0.6444628238677979,-0.18387043476104736,-0.1368338167667389
1717005659114358500,10.244358642578124,-0.9053022861480713,-0.1661553531885147,-0.1313360333442688
1717005659124345000,10.254344970703125,-1.0561859607696533,0.033597588539123535,-0.04764748737215996
1717005659134347300,10.26434716796875,-1.092837929725647,0.3481931984424591,-0.01710422709584236
1717005659144333300,10.274333251953125,-1.120937705039978,0.32620203495025635,-0.1270599663257599
1717005659154364400,10.284364501953124,-1.2321151494979858,0.3384193480014801,-0.23457226157188416
1717005659164322600,10.294322509765625,-1.3542882204055786,0.39645153284072876,-0.31093040108680725
1717005659174355500,10.30435546875,-1.4159855842590332,0.4392121136188507,-0.3695734739303589
1717005659184342300,10.31434228515625,-1.4135421514511108,0.485027015209198,-0.35552358627319336
1717005659194344400,10.324344482421875,-1.3848315477371216,0.39156460762023926,-0.24007004499435425
1717005659204331000,10.3343310546875,-1.4227051734924316,0.28099802136421204,-0.16004669666290283
1717005659214364200,10.3443642578125,-1.5057828426361084,0.22663100063800812,-0.06536258012056351
1717005659224350700,10.354350830078126,-1.6200146675109863,0.02687807008624077,-0.025656340643763542
1717005659234353200,10.364353271484376,-1.8234328031539917,-0.25961771607398987,-0.015882495790719986
1717005659244340200,10.37434033203125,-2.191784381866455,-0.7538077235221863,-0.01038470957428217
1717005659254370600,10.38437060546875,-2.707354784011841,-1.3072515726089478,-0.001832595793530345
1717005659264329000,10.394328857421876,-3.219259738922119,-1.6401731967926025,0.025656340643763542
1717005659274359800,10.40435986328125,-3.640756845474243,-1.7201964855194092,0.05009094998240471
1717005659284348700,10.4143486328125,-4.03598690032959,-1.4422528743743896,0.10445795953273773
1717005659294349000,10.42434912109375,-4.32675838470459,-1.3616186380386353,0.1508837193250656
1717005659304337700,10.434337646484375,-4.4849724769592285,-1.3903292417526245,0.17043140530586243
1717005659314368300,10.4443681640625,-4.651127815246582,-1.4373658895492554,0.11850785464048386
1717005659324326700,10.45432666015625,-4.751920700073242,-1.5070046186447144,-0.015882495790719986
1717005659334357200,10.464357177734374,-4.587597846984863,-1.483791708946228,-0.1264491081237793
1717005659344346000,10.47434619140625,-4.117231845855713,-1.4770721197128296,-0.1612684279680252
1717005659354346500,10.484346435546875,-3.4855971336364746,-1.5106697082519531,-0.14905111491680145
1717005659364335000,10.494335205078125,-2.883283853530884,-1.4819591045379639,-0.10506882518529892
1717005659374366000,10.504365966796875,-2.4770586490631104,-1.189354658126831,-0.07147123664617538
1717005659384324400,10.514324462890626,-2.284025192260742,-0.7165449261665344,-0.06719517707824707
1717005659394355000,10.52435498046875,-2.2259929180145264,-0.3225368559360504,-0.09224065393209457
1717005659404343800,10.53434375,-2.2033908367156982,-0.13072516024112701,-0.16065755486488342
1717005659414344000,10.544343994140625,-2.1759018898010254,-0.06536258012056351,-0.2742784917354584
1717005659424332800,10.554332763671875,-2.1875083446502686,0.13500121235847473,-0.41111230850219727
1717005659434363400,10.56436328125,-2.1875083446502686,0.8497135639190674,-0.43249258399009705
1717005659444321800,10.57432177734375,-2.02929425239563,1.4092661142349243,-0.475253164768219
1717005659454355000,10.58435498046875,-1.6786576509475708,1.6811012029647827,-0.5943718552589417
1717005659464341200,10.59434130859375,-0.8448266386985779,1.9199494123458862,-0.7953465580940247
1717005659474371800,10.604371826171874,0.5687155723571777,1.9089539051055908,-1.1270463466644287
1717005659484330500,10.61433056640625,2.109928607940674,1.9688186645507812,-1.5387696027755737
1717005659494361000,10.624361083984375,3.263853073120117,1.9052886962890625,-2.0231857299804688
1717005659504350000,10.634349853515625,3.8679988384246826,1.8197675943374634,-2.499049663543701
1717005659514352000,10.64435205078125,4.025601863861084,1.7831156253814697,-2.8374691009521484
1717005659524339000,10.6543388671875,3.7873644828796387,1.6035212278366089,-2.9602530002593994
1717005659534371800,10.664371826171875,3.2418618202209473,1.1215485334396362,-2.8649580478668213
1717005659544328000,10.674327880859375,2.433687210083008,0.2675589919090271,-2.604118585586548
1717005659554360600,10.684360595703126,1.5430456399917603,-0.6664539575576782,-2.1978931427001953
1717005659564347400,10.694347412109375,0.7825183868408203,-1.2724323272705078,-1.6401731967926025
1717005659574349600,10.704349609375,0.23090706765651703,-1.379333734512329,-0.8998045325279236
1717005659584336400,10.71433642578125,0.02321287989616394,-1.3243558406829834,-0.11545353382825851
1717005659594369000,10.724369140625,0.17409659922122955,-1.379333734512329,0.5448917746543884
1717005659604325600,10.73432568359375,0.5656611919403076,-1.7373007535934448,1.0231993198394775
1717005659614358000,10.74435791015625,1.0555751323699951,-2.397646188735962,1.3469579219818115
1717005659624345000,10.754344970703125,1.5070046186447144,-2.9694159030914307,1.5460999011993408
1717005659634345000,10.764344970703124,1.7605136632919312,-3.19054913520813,1.578475832939148
1717005659644334000,10.774333984375,1.8179349899291992,-3.0469958782196045,1.4288138151168823
1717005659654364700,10.78436474609375,1.7458528280258179,-2.704911231994629,1.0793988704681396
1717005659664323000,10.794322998046875,1.701259732246399,-2.3487768173217773,0.5925393104553223
1717005659674353700,10.804353759765625,1.737911581993103,-2.0060815811157227,0.0708603709936142
1717005659684342500,10.814342529296875,1.8270978927612305,-1.7116444110870361,-0.43615779280662537
1717005659694343000,10.824343017578125,2.0079140663146973,-1.4398094415664673,-0.8833111524581909
1717005659704331500,10.83433154296875,2.3744332790374756,-1.1129964590072632,-1.2785409688949585
1717005659714362400,10.8443623046875,2.7293457984924316,-0.969443142414093,-1.6578882932662964
1717005659724351200,10.854351318359376,2.9859092235565186,-0.9071348905563354,-1.955379605293274
1717005659734351000,10.86435107421875,3.098308563232422,-0.9388998746871948,-2.10809588432312
1717005659744340200,10.87434033203125,3.0641000270843506,-1.0073168277740479,-2.1423044204711914
1717005659754370600,10.88437060546875,2.9382617473602295,-1.197906732559204,-2.083050489425659
1717005659764329000,10.894328857421876,2.7397305965423584,-1.3952162265777588,-1.9248363971710205
1717005659774359800,10.90435986328125,2.5118777751922607,-1.5039502382278442,-1.6572774648666382
1717005659784348700,10.9143486328125,2.157576084136963,-1.350012183189392,-1.1539244651794434
1717005659794349000,10.92434912109375,1.9089539051055908,-1.236391305923462,-0.856433093547821
1717005659804337700,10.934337646484375,1.7232508659362793,-1.3634512424468994,-0.6646214127540588
1717005659814370600,10.94437060546875,1.643227458000183,-1.722640037536621,-0.5766568183898926
1717005659824327000,10.954326904296876,1.6377297639846802,-2.155743360519409,-0.5571091175079346
1717005659834357000,10.96435693359375,1.6536122560501099,-1.9663752317428589,-0.4599815309047699
1717005659844346000,10.97434619140625,1.6187928915023804,-1.6658295392990112,-0.2724458873271942
1717005659854348500,10.9843486328125,1.5845844745635986,-1.7696765661239624,-0.2932153046131134
1717005659864335000,10.994335205078125,1.463022232055664,-1.50211763381958,-0.3127630054950714
1717005659874367700,11.00436767578125,1.19912850856781,-1.0641272068023682,-0.4001167416572571
1717005659884324400,11.014324462890626,0.8814785480499268,-0.5522221922874451,-0.47830748558044434
1717005659894355000,11.02435498046875,0.7202101349830627,-0.20463985204696655,-0.5057964324951172
1717005659904343800,11.03434375,0.7965682744979858,0.003054326167330146,-0.5913175344467163
1717005659914346000,11.044345947265626,1.2620476484298706,0.31154128909111023,-0.8093964457511902
1717005659924332800,11.054332763671875,1.8093829154968262,-0.01771509274840355,-0.8875871896743774
1717005659934363600,11.06436376953125,2.0555615425109863,-0.16798794269561768,-0.8338310718536377
1717005659944321800,11.07432177734375,1.8527542352676392,-0.19486601650714874,-0.6969972252845764
1717005659954352400,11.084352294921874,1.55892813205719,-0.12889257073402405,-0.5271766781806946
1717005659964341200,11.09434130859375,1.3017538785934448,-0.02321287989616394,-0.4746423065662384
1717005659974372000,11.1043720703125,1.0671815872192383,-0.019547687843441963,-0.5448917746543884
1717005659984330500,11.11433056640625,0.8930850028991699,0.039706241339445114,-0.6719517707824707
1717005659994361000,11.124361083984375,0.8155050873756409,0.09896016865968704,-0.8350527882575989
1717005660004350000,11.134349853515625,0.8594874143600464,0.13744467496871948,-0.9999864101409912
1717005660014350000,11.14435009765625,1.0195341110229492,0.1411098688840866,-1.1459832191467285
1717005660024339000,11.1543388671875,1.2406673431396484,0.1062905490398407,-1.2510520219802856
1717005660034369500,11.16436962890625,1.425148606300354,0.06719517707824707,-1.289536476135254
1717005660044328000,11.174327880859375,1.5326608419418335,0.4050036668777466,-1.3280210494995117
1717005660054358500,11.184358642578125,1.6847662925720215,0.9633345007896423,-1.4880677461624146
1717005660064347600,11.19434765625,1.742187738418579,0.5717698931694031,-1.4196507930755615
1717005660074347800,11.20434765625,1.8069393634796143,0.11178833991289139,-1.177748203277588
1717005660084368600,11.21436865234375,1.8466455936431885,-0.04703662544488907,-0.9175195693969727
1717005660094367200,11.2243671875,1.8710802793502808,-0.26939156651496887,-0.6927211880683899
1717005660104325600,11.23432568359375,1.8973474502563477,-0.6133087277412415,-0.4996877610683441
1717005660114356200,11.244356201171875,1.919338583946228,-0.8631525635719299,-0.30604347586631775
1717005660124345000,11.254344970703125,1.9150625467300415,-1.0219775438308716,-0.12034045159816742
1717005660134345200,11.26434521484375,1.8643606901168823,-1.1966849565505981,0.025045474991202354
1717005660144333300,11.274333251953125,1.7739527225494385,-1.3750576972961426,0.12889257073402405
1717005660154364400,11.284364501953124,1.6682729721069336,-1.6047430038452148,0.20830504596233368
1717005660164322600,11.294322509765625,1.5851953029632568,-1.9339994192123413,0.26511552929878235
1717005660174353200,11.304353271484375,1.6016886234283447,-2.068389654159546,0.32131510972976685
1717005660184342300,11.31434228515625,1.693318486213684,-1.8936822414398193,0.3439171314239502
1717005660194342100,11.324342041015624,1.7568484544754028,-1.5699236392974854,0.26633724570274353
1717005660204331300,11.334331298828126,1.8069393634796143,-1.3866641521453857,0.08979719132184982
1717005660214361900,11.34436181640625,1.89979088306427,-1.3463469743728638,-0.11728613078594208
1717005660224350700,11.354350830078126,1.8973474502563477,-1.2467759847640991,-0.28588494658470154
1717005660234350800,11.364350830078125,1.7562376260757446,-1.1282681226730347,-0.37140607833862305
1717005660244340200,11.37434033203125,1.4202617406845093,-1.0781772136688232,-0.3885102868080139
1717005660254370800,11.384370849609375,0.9095783233642578,-1.054964303970337,-0.3903428912162781
1717005660264329000,11.394328857421876,0.342695415019989,-1.0201449394226074,-0.4080579876899719
1717005660274359600,11.404359619140624,-0.16004669666290283,-0.96883225440979,-0.4404338300228119
1717005660284348700,11.4143486328125,-0.543059229850769,-0.9541715383529663,-0.4612032473087311
1717005660294348800,11.424348876953125,-0.8130616545677185,-0.9896016716957092,-0.46303585171699524
1717005660304337700,11.434337646484375,-1.0067058801651,-1.0519099235534668,-0.45142942667007446
1717005660314368300,11.4443681640625,-1.1142182350158691,-1.1032226085662842,-0.4129449129104614
1717005660324327000,11.454326904296876,-1.1301007270812988,-1.0989465713500977,-0.3323107063770294
1717005660334357200,11.464357177734374,-1.0848966836929321,-1.0109820365905762,-0.23029619455337524
1717005660344346000,11.47434619140625,-1.0299187898635864,-0.8912523984909058,-0.1417207419872284
1717005660354346500,11.484346435546875,-1.0311405658721924,-0.7812966704368591,-0.07513642311096191
1717005660364335000,11.494335205078125,-1.1252137422561646,-0.7055493593215942,-0.024434609338641167
1717005660374366000,11.504365966796875,-1.4043792486190796,-0.5192354321479797,0.10262536257505417
1717005660384324400,11.514324462890626,-1.6756033897399902,-0.3280346393585205,0.2669481039047241
1717005660394355200,11.524355224609375,-1.945605754852295,-0.2981022298336029,0.45204028487205505
1717005660404343800,11.53434375,-2.2094995975494385,-0.2779437005519867,0.6933320760726929
1717005660414346000,11.544345947265626,-2.4214699268341064,-0.2736676335334778,1.0109820365905762
1717005660424332800,11.554332763671875,-2.595566511154175,-0.40744712948799133,1.2803735733032227
1717005660434365700,11.56436572265625,-2.7391197681427,-0.5962044596672058,1.5222761631011963
1717005660444321800,11.57432177734375,-2.8350255489349365,-0.7825183868408203,1.76723313331604
1717005660454354700,11.584354736328125,-2.8350255489349365,-0.9651671051979065,2.0286834239959717
1717005660464341200,11.59434130859375,-2.710409164428711,-1.1465940475463867,2.275473117828369
1717005660474374000,11.604373779296875,-2.4697282314300537,-1.3127493858337402,2.4972171783447266
1717005660484330200,11.614330322265625,-2.152078151702881,-1.4654656648635864,2.6847527027130127
1717005660494363000,11.62436279296875,-1.807550311088562,-1.606575608253479,2.8099801540374756
1717005660504350000,11.634349853515625,-1.490511178970337,-1.7342463731765747,2.8747317790985107
1717005660514351900,11.644351806640625,-1.2192870378494263,-1.8405369520187378,2.883894920349121
1717005660524339000,11.6543388671875,-1.0109820365905762,-1.8973474502563477,2.850908041000366
1717005660534371300,11.664371337890625,-0.8881980776786804,-1.8967366218566895,2.777604341506958
1717005660544328000,11.674327880859375,-0.8643743395805359,-1.86497163772583,2.6615397930145264
1717005660554360600,11.684360595703126,-0.9272934198379517,-1.8460347652435303,2.4978280067443848
1717005660564347600,11.69434765625,-1.0592403411865234,-1.835650086402893,2.3121249675750732
1717005660574349300,11.704349365234375,-1.2333369255065918,-1.8252654075622559,2.129476308822632
1717005660584336400,11.71433642578125,-1.4288138151168823,-1.8270978927612305,1.949881911277771
1717005660594369000,11.724369140625,-1.6102408170700073,-1.7989981174468994,1.7776178121566772
1717005660604325600,11.73432568359375,-1.7629570960998535,-1.7440202236175537,1.6181820631027222
1717005660614358300,11.744358154296876,-1.8863518238067627,-1.6584991216659546,1.4770721197128296
1717005660624345000,11.754344970703125,-1.9688186645507812,-1.560760736465454,1.348179578781128
1717005660634347500,11.764347412109375,-2.0079140663146973,-1.4495831727981567,1.23394775390625
1717005660644334000,11.774333984375,-2.010357618331909,-1.32863187789917,1.1325441598892212
1717005660654366700,11.78436669921875,-1.9828685522079468,-1.207069754600525,1.0476338863372803
1717005660664323000,11.794322998046875,-1.9321668148040771,-1.0757336616516113,0.9737191796302795
1717005660674355700,11.804355712890626,-1.8686367273330688,-0.940732479095459,0.912021815776825
1717005660684342500,11.814342529296875,-1.803274154663086,-0.817948579788208,0.8692612648010254
1717005660694344700,11.8243447265625,-1.739133358001709,-0.6933320760726929,0.8576548099517822
1717005660704331500,11.83433154296875,-1.6774359941482544,-0.5870414972305298,0.8668177723884583
1717005660714364400,11.844364501953125,-1.6297885179519653,-0.5180137157440186,0.8698720932006836
1717005660724351200,11.854351318359376,-1.6004669666290283,-0.48869219422340393,0.8472700715065002
1717005660734353700,11.864353759765624,-1.598023533821106,-0.47219884395599365,0.7959573864936829
1717005660744340200,11.87434033203125,-1.623068928718567,-0.44287729263305664,0.7202101349830627
1717005660754372900,11.884372802734376,-1.6646077632904053,-0.41233405470848083,0.6340781450271606
1717005660764329000,11.894328857421876,-1.7085901498794556,-0.394008070230484,0.5363397002220154
1717005660774361900,11.90436181640625,-1.7525724172592163,-0.3591887652873993,0.43249258399009705
1717005660784348700,11.9143486328125,-1.7818939685821533,-0.2987131178379059,0.32498031854629517
1717005660794350800,11.924350830078126,-1.7849482297897339,-0.22602014243602753,0.20525072515010834
1717005660804337700,11.934337646484375,-1.7605136632919312,-0.13500121235847473,0.06963863968849182
1717005660814370600,11.94437060546875,-1.7171422243118286,-0.02321287989616394,-0.07880161702632904
1717005660824327000,11.954326904296876,-1.6584991216659546,0.1111774742603302,-0.22479841113090515
1717005660834359600,11.964359619140625,-1.5815300941467285,0.27000242471694946,-0.3530801236629486
1717005660844346000,11.97434619140625,-1.490511178970337,0.43676865100860596,-0.4648684561252594
1717005660854348500,11.9843486328125,-1.3933836221694946,0.6090326309204102,-0.5711590051651001
1717005660864335000,11.994335205078125,-1.281595230102539,0.7525860071182251,-0.6933320760726929
1717005660874368300,12.0043681640625,-1.1527026891708374,0.8735373020172119,-0.8423831462860107
1717005660884324400,12.014324462890626,-1.0030407905578613,0.9902125597000122,-1.0054842233657837
1717005660894357000,12.02435693359375,-0.8136724829673767,1.1337659358978271,-1.141707181930542
1717005660904343800,12.03434375,-0.578489363193512,1.2999212741851807,-1.218676209449768
1717005660914346000,12.044345947265626,-0.2932153046131134,1.453248381614685,-1.2357803583145142
1717005660924332800,12.054332763671875,0.030543262138962746,1.5656476020812988,-1.2217304706573486
1717005660934365400,12.064365478515626,0.3634648323059082,1.616349458694458,-1.2040153741836548
1717005660944321800,12.07432177734375,0.6914994716644287,1.6139060258865356,-1.1753047704696655
1717005660954354400,12.0843544921875,1.0122036933898926,1.5546520948410034,-1.1197160482406616
1717005660964341200,12.09434130859375,1.454470157623291,1.398881435394287,-0.9834930300712585
1717005660974374100,12.1043740234375,1.7061465978622437,1.302364706993103,-0.8381071090698242
1717005660984330500,12.11433056640625,1.9126191139221191,1.189354658126831,-0.6517932415008545
1717005660994363100,12.124363037109376,2.052507162094116,1.0580185651779175,-0.44165557622909546
1717005661004350000,12.134349853515625,2.120924234390259,0.8753699064254761,-0.22113321721553802
1717005661014352100,12.14435205078125,2.155132532119751,0.6334672570228577,-0.00733038317412138
1717005661024339000,12.1543388671875,2.1624629497528076,0.3500257730484009,0.17898350954055786
1717005661034371800,12.164371826171875,2.138639211654663,0.04398229718208313,0.31031954288482666
1717005661044328000,12.174327880859375,2.102598190307617,-0.22296582162380219,0.3640756905078888
1717005661054360600,12.184360595703126,2.0445659160614014,-0.46853363513946533,0.3481931984424591
1717005661064347600,12.19434765625,1.948660135269165,-0.6438519954681396,0.2767219543457031
1717005661074349800,12.204349853515625,1.8154915571212769,-0.7043276429176331,0.18020524084568024
1717005661084336400,12.21433642578125,1.6872098445892334,-0.6188064813613892,0.07635815441608429
1717005661094369300,12.224369384765625,1.615127682685852,-0.4080579876899719,-0.019547687843441963
1717005661104325600,12.23432568359375,1.652390480041504,-0.11667526513338089,-0.09285151958465576
1717005661114358300,12.244358154296876,1.8124371767044067,0.22907446324825287,-0.12095131725072861
1717005661124345000,12.254344970703125,2.0665571689605713,0.5155702829360962,-0.11178833991289139
1717005661134347500,12.264347412109375,2.348165988922119,0.6255260109901428,-0.1007927656173706
1717005661144333300,12.274333251953125,2.5870141983032227,0.6432411074638367,-0.08552113175392151
1717005661154364400,12.284364501953124,2.7623326778411865,0.6334672570228577,-0.04214970022439957
1717005661164322600,12.294322509765625,2.8411343097686768,0.5699372887611389,0.021380282938480377
1717005661174353400,12.304353515625,2.8008172512054443,0.4599815309047699,0.11789698898792267
1717005661184342300,12.31434228515625,2.6426031589508057,0.31520646810531616,0.25045475363731384
1717005661194342400,12.32434228515625,2.4043655395507812,0.1111774742603302,0.39706242084503174
1717005661204331300,12.334331298828126,2.1343631744384766,-0.13744467496871948,0.5448917746543884
1717005661214361900,12.34436181640625,1.8887953758239746,-0.4080579876899719,0.6976081132888794
1717005661224350700,12.354350830078126,1.703092336654663,-0.6579018831253052,0.8436049222946167
1717005661234350800,12.364350830078125,1.5809192657470703,-0.8643743395805359,0.959669291973114
1717005661244340200,12.37434033203125,1.5027284622192383,-1.026253581047058,1.035416603088379
1717005661254370800,12.384370849609375,1.443474531173706,-1.1520918607711792,1.0769554376602173
1717005661264329000,12.394328857421876,1.387274980545044,-1.2235630750656128,1.0897835493087769
1717005661274359800,12.40435986328125,1.3267992734909058,-1.236391305923462,1.0800096988677979
1717005661284348700,12.4143486328125,1.2498302459716797,-1.1954632997512817,1.0384708642959595
1717005661294348800,12.424348876953125,1.156978726387024,-1.1093312501907349,0.9779952764511108
1717005661304337700,12.434337646484375,1.0494664907455444,-0.9902125597000122,0.9077457785606384
1717005661314368300,12.4443681640625,0.9285151958465576,-0.8509352803230286,0.8350527882575989
1717005661324327000,12.454326904296876,0.7953465580940247,-0.7299839854240417,0.7605272531509399
1717005661334357200,12.464357177734374,0.6688974499702454,-0.6304129362106323,0.6988298296928406
1717005661344346000,12.47434619140625,0.5607742667198181,-0.5558874011039734,0.6664539575576782
1717005661354346200,12.48434619140625,0.46792277693748474,-0.5161811113357544,0.66584312915802
1717005661364335000,12.494335205078125,0.38728857040405273,-0.5076290369033813,0.6829473376274109
1717005661374365700,12.50436572265625,0.30115658044815063,-0.5369505286216736,0.7220427393913269
1717005661384324400,12.514324462890626,0.20402899384498596,-0.6102544069290161,0.788016140460968
1717005661394355000,12.52435498046875,0.10445795953273773,-0.7312057018280029,0.8735373020172119
1717005661404343800,12.53434375,0.01771509274840355,-0.8747590184211731,0.9682214260101318
1717005661414344000,12.544343994140625,-0.04703662544488907,-1.0305296182632446,1.0512990951538086
1717005661424332800,12.554332763671875,-0.10934487730264664,-1.1814134120941162,1.1105530261993408
1717005661434363100,12.564363037109375,-0.16493362188339233,-1.3267992734909058,1.1563678979873657
